RamanShift	Intensity
190	5025.261
191	4956.231
192	4874.538
193	4799.206
194	4714.143
195	4637.55
196	4554.604
197	4473.539
198	4394.58
199	4294.833
200	4213.755
201	4129.415
202	4069.681
203	4012.548
204	3959.033
205	3910.182
206	3838.819
207	3772.445
208	3705.802
209	3655.389
210	3599.52
211	3537.056
212	3471.549
213	3381.751
214	3294.619
215	3201.902
216	3125.977
217	3054.339
218	2983.799
219	2923.116
220	2837.728
221	2767.088
222	2703.712
223	2664.054
224	2617.709
225	2554.897
226	2493.933
227	2425.648
228	2368.056
229	2298.342
230	2234.901
231	2170.976
232	2110.827
233	2062.264
234	2001.006
235	1954.454
236	1908.394
237	1874.64
238	1837.216
239	1791.787
240	1750.054
241	1706.431
242	1668.702
243	1613.452
244	1553.325
245	1489.677
246	1429.606
247	1383.814
248	1342.668
249	1316.898
250	1272.719
251	1224.658
252	1181.582
253	1151.973
254	1127.232
255	1089.223
256	1050.034
257	997.4861
258	942.3856
259	883.6094
260	828.1837
261	787.2785
262	760.5876
263	745.4318
264	699.3268
265	642.582
266	603.611
267	594.0855
268	583.7125
269	544.8904
270	500.6367
271	460.907
272	431.6747
273	396.6726
274	360.9972
275	327.4914
276	296.1789
277	275.4513
278	250.3855
279	239.8754
280	246.9273
281	271.2062
282	285.2835
283	271.5344
284	244.8965
285	221.9173
286	199.5687
287	169.5596
288	137.7938
289	105.7684
290	75.94089
291	60.38319
292	59.79572
293	73.87901
294	79.79388
295	80.5306
296	83.9835
297	90.94866
298	95.37048
299	93.42097
300	88.31118
301	87.8114
302	88.0738
303	81.57784
304	68.34624
305	56.00811
306	50.48032
307	47.67638
308	39.83094
309	32.24775
310	25.73907
311	22.01552
312	16.74217
313	8.805742
314	4.52056
315	9.072779
316	15.58386
317	11.63907
318	-1.026679
319	-16.75833
320	-30.74128
321	-35.83749
322	-27.64691
323	-9.202746
324	12.3931
325	32.20942
326	44.10867
327	46.38589
328	57.95629
329	87.45004
330	118.3553
331	141.7064
332	152.0889
333	158.6866
334	159.6392
335	168.6447
336	188.6916
337	216.946
338	252.8026
339	284.1443
340	305.7434
341	315.8608
342	337.4126
343	367.0721
344	392.9432
345	408.4505
346	416.0733
347	428.1706
348	434.8876
349	440.9816
350	443.1923
351	444.5815
352	444.9247
353	438.6571
354	425.273
355	403.0121
356	371.5952
357	336.532
358	296.56
359	261.1288
360	230.3043
361	207.7683
362	192.1714
363	168.1256
364	154.0943
365	149.6225
366	159.4581
367	174.17
368	190.1137
369	201.9711
370	205.4648
371	199.3286
372	190.5079
373	173.8712
374	149.0016
375	120.0512
376	88.50221
377	60.19629
378	38.24751
379	20.29857
380	14.50886
381	11.79931
382	17.70405
383	24.8908
384	32.20574
385	37.70863
386	39.32385
387	40.00319
388	42.16867
389	47.27475
390	60.22504
391	75.79994
392	86.86896
393	89.90607
394	91.34312
395	94.02906
396	97.08151
397	104.4494
398	109.4715
399	105.125
400	96.84822
401	100.6998
402	119.5433
403	143.3738
404	165.5251
405	187.8277
406	216.978
407	243.4776
408	272.6693
409	293.1094
410	304.899
411	302.5303
412	289.8066
413	270.3342
414	255.8242
415	258.9103
416	272.577
417	277.6623
418	277.4843
419	284.985
420	300.8462
421	311.9063
422	312.5049
423	301.4566
424	281.4154
425	257.0837
426	234.2381
427	220.1458
428	210.4488
429	208.1051
430	207.6687
431	204.7198
432	201.7508
433	200.0315
434	194.6037
435	177.2897
436	153.1829
437	134.6974
438	126.9622
439	115.3159
440	93.28958
441	73.43344
442	57.32916
443	51.12527
444	47.59882
445	50.80131
446	54.99556
447	59.31721
448	62.08466
449	61.56466
450	63.04531
451	72.19081
452	81.85899
453	84.30072
454	82.7537
455	88.80826
456	101.4544
457	112.2846
458	117.7408
459	124.1001
460	136.2987
461	149.9746
462	165.8719
463	180.9246
464	198.652
465	216.1655
466	239.4236
467	265.5548
468	292.834
469	318.9702
470	341.236
471	368.6063
472	391.5666
473	419.1358
474	443.2438
475	470.0417
476	493.4738
477	514.6934
478	531.9742
479	546.9924
480	568.4878
481	588.4709
482	612.0363
483	631.3935
484	651.4684
485	666.2796
486	678.8437
487	687.6388
488	690.9417
489	692.3981
490	683.0433
491	659.7267
492	630.8317
493	608.7031
494	597.6671
495	584.0766
496	569.358
497	550.9224
498	528.3914
499	508.2768
500	492.5102
501	480.5768
502	460.0244
503	438.7721
504	411.0135
505	386.4638
506	372.5815
507	375.0036
508	382.6846
509	386.2586
510	388.8106
511	390.4768
512	387.6913
513	379.5363
514	366.7236
515	351.4523
516	336.8607
517	322.5877
518	311.1533
519	311.092
520	325.4837
521	348.4534
522	370.0392
523	389.2183
524	410.2126
525	425.1315
526	433.7359
527	434.5788
528	444.347
529	467.9037
530	497.8057
531	529.4598
532	560.549
533	602.3001
534	636.1604
535	667.7404
536	684.5628
537	694.9394
538	694.6802
539	688.6498
540	680.0494
541	666.5191
542	649.7924
543	630.4672
544	604.0301
545	580.5396
546	559.1685
547	545.4285
548	527.2763
549	507.8264
550	482.4067
551	452.9059
552	425.6625
553	402.246
554	382.6745
555	351.8542
556	323.5482
557	293.1957
558	270.2373
559	250.754
560	239.7968
561	224.9073
562	205.2836
563	188.8753
564	177.952
565	170.3418
566	156.8321
567	145.967
568	137.6591
569	135.7316
570	136.9763
571	140.2564
572	136.3071
573	123.5921
574	110.8858
575	102.604
576	97.86424
577	94.37849
578	93.77082
579	92.34161
580	91.38744
581	86.99758
582	84.09113
583	92.34338
584	111.4263
585	129.392
586	139.567
587	146.3022
588	153.5967
589	153.469
590	144.4009
591	131.6855
592	128.0088
593	128.2523
594	117.2624
595	99.90416
596	89.97581
597	91.9162
598	94.28169
599	92.11766
600	86.57697
601	76.65662
602	67.02065
603	58.32618
604	57.40751
605	66.07317
606	82.40874
607	95.78709
608	104.0675
609	116.283
610	131.802
611	143.3123
612	147.8148
613	146.1094
614	142.3508
615	134.9208
616	126.471
617	118.2709
618	111.3049
619	106.4286
620	98.75429
621	90.17314
622	80.6039
623	73.01305
624	71.68811
625	78.49561
626	90.01066
627	99.94245
628	111.6093
629	128.8527
630	146.251
631	165.5759
632	178.4343
633	184.7587
634	180.125
635	170.421
636	157.8279
637	147.7406
638	144.0036
639	144.6701
640	146.5206
641	154.0902
642	169.4524
643	184.904
644	194.1567
645	196.135
646	201.1003
647	205.2794
648	205.9756
649	202.0266
650	196.0915
651	189.56
652	183.3835
653	178.7344
654	173.1891
655	162.7187
656	154.3079
657	149.3414
658	150.9429
659	156.2962
660	164.2839
661	168.4164
662	169.7994
663	178.3543
664	195.2242
665	216.7208
666	239.919
667	261.4649
668	278.4765
669	291.5842
670	306.9644
671	317.8653
672	330.9392
673	338.6079
674	345.3015
675	345.4025
676	338.6854
677	326.1312
678	314.8154
679	307.6325
680	296.3164
681	280.0568
682	258.5836
683	232.9084
684	209.6441
685	191.0012
686	178.0309
687	158.9518
688	144.6468
689	131.4674
690	125.6342
691	123.062
692	124.1924
693	120.0555
694	109.8767
695	97.08945
696	84.24805
697	69.82468
698	54.78313
699	44.83651
700	41.09558
701	48.04916
702	63.79593
703	81.55382
704	89.94233
705	90.50417
706	95.78787
707	101.6099
708	105.7168
709	106.3899
710	104.5037
711	101.1172
712	103.5124
713	113.8724
714	119.8518
715	114.6533
716	102.7557
717	87.36496
718	77.10964
719	78.33692
720	87.19838
721	91.44383
722	93.70065
723	97.59912
724	100.3051
725	101.2037
726	96.9565
727	81.08212
728	56.80529
729	41.31283
730	43.20193
731	49.42869
732	52.72335
733	54.16773
734	50.96218
735	50.45911
736	59.9593
737	71.97047
738	79.36496
739	81.47008
740	82.10453
741	81.9136
742	88.32498
743	98.06809
744	104.5431
745	104.846
746	101.0246
747	94.13109
748	89.59094
749	90.77789
750	94.51936
751	98.62974
752	102.1078
753	103.1692
754	103.8651
755	106.4155
756	111.4273
757	119.7989
758	131.2487
759	145.8503
760	163.494
761	191.4407
762	222.7106
763	256.7313
764	286.4334
765	324.8139
766	365.902
767	417.1106
768	470.7877
769	527.7885
770	581.6879
771	633.4479
772	689.4916
773	743.8814
774	811.548
775	871.7641
776	937.5078
777	981.3661
778	1018.583
779	1025.558
780	1026.969
781	1006.002
782	967.1959
783	911.877
784	844.6156
785	782.8904
786	723.9465
787	683.1669
788	645.7601
789	613.9467
790	574.3922
791	524.0912
792	480.2352
793	451.1718
794	424.8512
795	381.8807
796	342.5193
797	305.35
798	286.5287
799	279.7302
800	283.9562
801	273.3362
802	254.2263
803	226.6922
804	201.3024
805	186.8212
806	186.944
807	181.7675
808	175.7511
809	179.3925
810	195.9573
811	224.8651
812	260.4282
813	289.2818
814	301.7375
815	312.1356
816	328.1555
817	342.5529
818	354.8885
819	362.673
820	367.1424
821	373.2235
822	390.5136
823	411.6784
824	434.2738
825	452.3173
826	468.4371
827	480.4347
828	502.7653
829	527.0468
830	550.1668
831	568.5705
832	594.4913
833	622.9357
834	657.6563
835	695.3099
836	748.6991
837	814.0223
838	891.9582
839	973.0154
840	1061.729
841	1151.655
842	1252.234
843	1367.204
844	1475.325
845	1574.421
846	1642.114
847	1697.698
848	1717.413
849	1729.669
850	1704.17
851	1654.864
852	1576.374
853	1472.388
854	1369.34
855	1263.979
856	1176.554
857	1065.337
858	967.7092
859	873.8448
860	809.1968
861	740.8942
862	686.9753
863	619.9587
864	559.4798
865	500.7109
866	461.3885
867	431.178
868	416.0795
869	401.5756
870	384.5127
871	369.6063
872	357.601
873	343.3977
874	324.0306
875	300.1963
876	273.2054
877	244.798
878	216.6174
879	193.9904
880	175.8392
881	166.0688
882	156.878
883	150.2357
884	136.7506
885	125.5409
886	118.3446
887	118.5298
888	121.6135
889	126.3914
890	123.4134
891	120.3609
892	126.9089
893	144.4734
894	173.1594
895	204.5164
896	227.5253
897	241.9905
898	273.8201
899	312.0924
900	342.2594
901	355.5483
902	368.4371
903	378.2628
904	387.7974
905	394.7021
906	398.7498
907	397.6787
908	387.6852
909	369.7249
910	353.7448
911	345.2094
912	330.646
913	306.8692
914	278.5955
915	250.3448
916	223.1636
917	199.0841
918	177.569
919	155.959
920	140.4739
921	130.5566
922	123.5909
923	111.6647
924	102.6723
925	99.22458
926	93.65768
927	74.26786
928	56.19296
929	49.79327
930	54.20277
931	61.73699
932	70.22036
933	72.38774
934	69.21812
935	65.94559
936	61.54047
937	57.00478
938	53.26487
939	48.65747
940	46.23888
941	45.86722
942	48.87536
943	55.40981
944	60.76743
945	58.14391
946	49.01848
947	41.55848
948	37.34652
949	34.29503
950	36.03192
951	43.11781
952	55.94873
953	70.08679
954	86.31383
955	114.4331
956	148.1754
957	186.7184
958	219.4762
959	255.1732
960	281.9227
961	304.5195
962	314.8763
963	317.2025
964	310.039
965	301.5241
966	294.1121
967	287.9776
968	283.3935
969	272.8745
970	257.4105
971	241.3653
972	228.9407
973	213.7616
974	198.2964
975	182.5505
976	170.627
977	163.7976
978	164.6272
979	177.0777
980	197.9594
981	208.7827
982	201.2841
983	198.5815
984	208.188
985	218.0265
986	223.3643
987	229.0469
988	235.2476
989	238.2435
990	237.2908
991	243.9205
992	261.6628
993	270.3054
994	262.0728
995	267.7668
996	299.9969
997	330.7561
998	344.7585
999	355.9601
1000	368.1187
1001	366.2208
1002	345.8369
1003	316.0148
1004	286.3662
1005	249.7312
1006	208.327
1007	172.9045
1008	150.6409
1009	132.7135
1010	113.9485
1011	96.96773
1012	81.34704
1013	65.22309
1014	47.75134
1015	38.12669
1016	39.79435
1017	42.33502
1018	38.96353
1019	37.01101
1020	38.87529
1021	47.68136
1022	63.56319
1023	78.07413
1024	85.31732
1025	95.64703
1026	112.9907
1027	132.655
1028	150.1779
1029	164.4391
1030	173.8006
1031	185.1723
1032	201.5112
1033	219.7823
1034	236.9743
1035	261.1105
1036	292.3694
1037	323.9836
1038	348.3188
1039	373.0315
1040	397.6903
1041	419.2158
1042	434.0323
1043	449.8445
1044	467.8966
1045	484.4485
1046	497.0049
1047	507.4838
1048	515.2756
1049	527.8591
1050	545.7617
1051	562.8391
1052	574.247
1053	578.6301
1054	574.6613
1055	573.218
1056	575.1417
1057	566.7449
1058	545.2907
1059	508.8445
1060	468.4972
1061	442.7968
1062	440.3295
1063	432.9348
1064	420.3265
1065	407.1777
1066	399.9136
1067	404.4633
1068	419.2544
1069	426.2617
1070	424.6858
1071	427.8525
1072	439.9662
1073	467.327
1074	505.8773
1075	548.7062
1076	581.8093
1077	608.1131
1078	618.706
1079	633.9196
1080	642.9377
1081	641.5174
1082	630.1442
1083	619.7967
1084	614.9779
1085	618.582
1086	630.3452
1087	643.6979
1088	656.5433
1089	672.0954
1090	678.9441
1091	673.5139
1092	657.1208
1093	643.3418
1094	628.3016
1095	604.9343
1096	585.7155
1097	572.6092
1098	569.4985
1099	566.4369
1100	573.1838
1101	592.0326
1102	606.7593
1103	602.1951
1104	592.7857
1105	592.9165
1106	593.0685
1107	589.115
1108	582.0882
1109	572.818
1110	561.8097
1111	550.5836
1112	545.577
1113	549.2437
1114	544.6176
1115	525.2327
1116	504.9445
1117	491.1417
1118	477.5117
1119	465.0137
1120	450.3134
1121	436.3287
1122	428.6766
1123	431.1303
1124	440.4134
1125	453.8282
1126	464.7143
1127	468.0241
1128	464.7562
1129	454.7068
1130	443.8612
1131	434.5951
1132	425.4962
1133	420.2867
1134	416.6333
1135	415.5668
1136	413.7234
1137	409.1334
1138	398.2393
1139	381.6589
1140	360.9349
1141	337.9646
1142	310.4302
1143	287.9706
1144	271.7822
1145	258.1593
1146	234.4028
1147	212.9116
1148	199.4648
1149	186.4421
1150	167.8134
1151	149.4568
1152	134.8425
1153	120.8825
1154	108.2842
1155	100.9391
1156	100.1087
1157	93.38148
1158	79.5748
1159	67.88566
1160	62.8969
1161	59.97305
1162	58.86039
1163	52.23447
1164	43.36215
1165	41.52192
1166	44.81482
1167	40.02579
1168	32.73316
1169	34.89937
1170	40.59721
1171	36.07704
1172	29.75685
1173	33.53359
1174	40.59618
1175	42.17334
1176	41.38483
1177	41.72522
1178	39.94621
1179	34.15549
1180	34.72741
1181	47.55802
1182	54.18919
1183	44.10322
1184	35.17206
1185	35.86504
1186	42.18589
1187	52.26907
1188	58.06851
1189	57.95371
1190	64.93148
1191	78.02859
1192	88.67741
1193	95.23372
1194	104.3865
1195	115.8898
1196	134.7542
1197	156.4575
1198	181.3675
1199	198.8521
1200	208.4373
1201	211.8262
1202	226.8451
1203	236.5396
1204	231.5484
1205	224.9633
1206	229.7186
1207	237.5976
1208	244.2686
1209	248.1966
1210	247.9153
1211	247.8373
1212	249.7193
1213	253.7444
1214	258.7275
1215	260.0735
1216	257.7249
1217	255.7864
1218	258.651
1219	275.1148
1220	297.8956
1221	309.8015
1222	315.3015
1223	333.2083
1224	351.3559
1225	362.7268
1226	370.2221
1227	383.3026
1228	389.4542
1229	382.7983
1230	386.5213
1231	414.2287
1232	439.3866
1233	449.6689
1234	460.7251
1235	474.453
1236	495.0665
1237	516.9351
1238	534.8394
1239	543.1861
1240	549.0982
1241	552.3404
1242	562.7834
1243	576.1675
1244	587.9294
1245	601.2133
1246	624.6722
1247	646.5468
1248	659.954
1249	667.9687
1250	676.7021
1251	673.6238
1252	655.5928
1253	625.3474
1254	590.1381
1255	564.5206
1256	557.8878
1257	560.573
1258	568.489
1259	562.0269
1260	546.0873
1261	538.9504
1262	538.2245
1263	532.6753
1264	526.8497
1265	517.3303
1266	520.8956
1267	548.5548
1268	578.0822
1269	592.0587
1270	601.4133
1271	609.979
1272	601.4044
1273	575.2367
1274	560.115
1275	563.0468
1276	560.099
1277	553.315
1278	551.6296
1279	552.7974
1280	547.9188
1281	539.8818
1282	532.2935
1283	524.6547
1284	513.3772
1285	509.0943
1286	516.5109
1287	531.5944
1288	548.5225
1289	563.8214
1290	573.16
1291	583.8766
1292	592.7339
1293	593.4587
1294	585.6559
1295	579.8219
1296	576.373
1297	572.9134
1298	571.5599
1299	570.9247
1300	573.2699
1301	579.1423
1302	581.3298
1303	575.2045
1304	562.6181
1305	546.6459
1306	527.9355
1307	512.0225
1308	497.678
1309	491.5595
1310	495.3922
1311	509.9537
1312	527.0306
1313	538.6708
1314	540.3792
1315	529.249
1316	511.8446
1317	496.9775
1318	494.2606
1319	488.7213
1320	473.669
1321	467.0495
1322	474.3347
1323	481.1627
1324	484.583
1325	489.4571
1326	491.7157
1327	485.8113
1328	476.684
1329	475.6602
1330	476.5746
1331	472.2848
1332	464.2697
1333	453.7718
1334	446.5516
1335	446.7018
1336	451.6794
1337	460.397
1338	473.6997
1339	486.7552
1340	496.7349
1341	498.5743
1342	497.1726
1343	488.4124
1344	472.5659
1345	460.9443
1346	463.5073
1347	472.7791
1348	482.1425
1349	498.3008
1350	518.4259
1351	537.4448
1352	546.7493
1353	545.6751
1354	533.0404
1355	517.8647
1356	504.8969
1357	497.9997
1358	495.6428
1359	491.0902
1360	484.8753
1361	476.2164
1362	471.2427
1363	472.7709
1364	477.5987
1365	482.318
1366	480.3126
1367	470.5139
1368	456.7676
1369	443.3704
1370	433.9146
1371	426.1987
1372	412.9082
1373	405.9771
1374	410.2474
1375	419.2592
1376	428.9041
1377	442.0501
1378	451.459
1379	445.1295
1380	425.9982
1381	412.2435
1382	401.5061
1383	385.0867
1384	374.6597
1385	374.659
1386	375.4957
1387	371.5434
1388	379.0035
1389	396.8274
1390	401.0442
1391	391.731
1392	391.5097
1393	395.9793
1394	395.8534
1395	394.0269
1396	393.0294
1397	393.9832
1398	397.5191
1399	399.4611
1400	398.3008
1401	397.9684
1402	401.2667
1403	414.1017
1404	431.0424
1405	443.2922
1406	451.2897
1407	461.4677
1408	473.1997
1409	489.0422
1410	498.6523
1411	498.1448
1412	497.5066
1413	498.4319
1414	499.1829
1415	499.5362
1416	498.0223
1417	500.6099
1418	514.7252
1419	528.3348
1420	530.6227
1421	536.1729
1422	549.1835
1423	554.1443
1424	548.9738
1425	551.3813
1426	557.7418
1427	555.836
1428	551.6229
1429	555.4634
1430	557.7247
1431	551.3495
1432	549.5733
1433	557.1312
1434	560.8878
1435	560.3447
1436	570.3502
1437	582.5276
1438	578.9951
1439	568.7499
1440	567.2973
1441	570.3628
1442	575.356
1443	579.6404
1444	581.5285
1445	586.1038
1446	593.0396
1447	600.9241
1448	607.2383
1449	610.033
1450	617.7679
1451	639.8491
1452	665.8284
1453	686.8198
1454	706.4587
1455	720.5797
1456	735.6233
1457	741.0126
1458	728.9755
1459	701.5137
1460	671.8529
1461	644.9333
1462	625.2946
1463	602.1675
1464	575.9001
1465	559.0885
1466	558.7443
1467	567.3472
1468	573.1448
1469	552.2691
1470	517.6877
1471	486.9976
1472	459.154
1473	437.7919
1474	413.9879
1475	392.205
1476	376.0468
1477	371.8846
1478	374.2783
1479	373.04
1480	350.0876
1481	322.9264
1482	306.173
1483	285.1936
1484	259.1933
1485	228.6017
1486	201.5344
1487	173.947
1488	157.9419
1489	148.5673
1490	143.9268
1491	135.1878
1492	127.894
1493	123.9101
1494	122.0428
1495	121.4302
1496	116.4555
1497	109.683
1498	104.5305
1499	100.0134
1500	95.09629
1501	85.04692
1502	70.40649
1503	55.29082
1504	47.03853
1505	47.89189
1506	56.02044
1507	60.35549
1508	59.36272
1509	51.73084
1510	42.71799
1511	37.16931
1512	34.02125
1513	37.58646
1514	51.20871
1515	72.33452
1516	96.76561
1517	119.0772
1518	136.2621
1519	138.9213
1520	125.661
1521	112.5378
1522	104.4859
1523	99.84332
1524	98.62994
1525	94.564
1526	92.1762
1527	92.68737
1528	92.27515
1529	89.60149
1530	86.1432
1531	80.36424
1532	66.95325
1533	54.98981
1534	51.63404
1535	57.39215
1536	69.33894
1537	81.67277
1538	89.51962
1539	94.49457
1540	96.2634
1541	104.9599
1542	104.1338
1543	83.92096
1544	69.77649
1545	75.3635
1546	91.21513
1547	111.3346
1548	125.5996
1549	131.9575
1550	138.6305
1551	144.5992
1552	151.885
1553	146.3324
1554	127.4294
1555	112.1021
1556	106.9659
1557	108.9822
1558	112.7957
1559	106.4147
1560	108.0971
1561	123.2447
1562	136.659
1563	140.5031
1564	134.5162
1565	119.48
1566	101.7177
1567	92.41985
1568	97.76854
1569	106.481
1570	114.6758
1571	131.5193
1572	148.1005
1573	155.9996
1574	155.5931
1575	154.4678
1576	148.6595
1577	140.7762
1578	138.1435
1579	145.2788
1580	162.5778
1581	183.3358
1582	200.9445
1583	205.4014
1584	194.4132
1585	183.6533
1586	176.7751
1587	161.7061
1588	149.4008
1589	148.6337
1590	156.83
1591	166.5806
1592	178.2436
1593	185.8617
1594	182.1293
1595	169.5941
1596	164.0161
1597	153.9051
1598	132.2708
1599	118.4389
1600	120.4156
1601	119.0479
1602	117.1035
1603	119.7682
1604	127.9937
1605	140.2433
1606	149.8194
1607	151.0573
1608	141.4672
1609	126.855
1610	123.7147
1611	126.1802
1612	123.2667
1613	121.1454
1614	122.4489
1615	131.8833
1616	145.0345
1617	150.5833
1618	148.9839
1619	147.0132
1620	142.7884
1621	137.5397
1622	130.0844
1623	123.1413
1624	118.6928
1625	118.6165
1626	120.0862
1627	125.7136
1628	134.6343
1629	146.7879
1630	154.5116
1631	146.9699
1632	130.2328
1633	118.4095
1634	109.4977
1635	103.5478
1636	92.56036
1637	80.40188
1638	70.88173
1639	72.85647
1640	89.06706
1641	105.0065
1642	110.4062
1643	114.5534
1644	117.478
1645	123.9764
1646	127.9876
1647	125.7638
1648	117.2607
1649	106.9387
1650	106.6707
1651	117.8115
1652	131.2393
1653	139.2794
1654	134.9783
1655	126.902
1656	120.0768
1657	107.3279
1658	96.80318
1659	98.31037
1660	103.7117
1661	101.6251
1662	108.9386
1663	125.7876
1664	136.4471
1665	139.518
1666	145.2129
1667	146.1027
1668	141.1098
1669	141.7121
1670	145.772
1671	132.6867
1672	112.2941
1673	99.95921
1674	90.31213
1675	81.75443
1676	80.96482
1677	88.49621
1678	94.85333
1679	102.5012
1680	113.1984
1681	120.4439
1682	121.2268
1683	120.1395
1684	117.2358
1685	111.2865
1686	115.275
1687	136.3043
1688	157.1604
1689	168.69
1690	178.1129
1691	182.3687
1692	187.9217
1693	184.2189
1694	169.4317
1695	150.5772
1696	136.8684
1697	133.4807
1698	141.0273
1699	150.7616
1700	164.649
1701	180.429
1702	203.5006
1703	224.4709
1704	238.2456
1705	244.7183
1706	248.4954
1707	243.6924
1708	231.7704
1709	221.9781
1710	214.1752
1711	206.1608
1712	195.684
1713	184.9197
1714	185.2664
1715	195.8071
1716	205.1422
1717	208.2061
1718	201.2223
1719	188.7263
1720	174.6078
1721	161.527
1722	150.2916
1723	135.8349
1724	133.0617
1725	144.3161
1726	149.6844
1727	146.8101
1728	141.2515
1729	130.8091
1730	117.9764
1731	102.284
1732	92.40382
1733	95.68803
1734	111.3758
1735	129.8115
1736	147.7693
1737	159.3747
1738	166.632
1739	162.7091
1740	148.8311
1741	127.1808
1742	106.1883
1743	90.87901
1744	84.1731
1745	69.5625
1746	61.59188
1747	66.93566
1748	72.02913
1749	73.82092
1750	82.96632
1751	90.62244
1752	87.74838
1753	76.88268
1754	62.73498
1755	52.11427
1756	51.31379
1757	59.07945
1758	71.34436
1759	81.13996
1760	92.45101
1761	103.1343
1762	118.6417
1763	125.6905
1764	118.2014
1765	109.4186
1766	104.0058
1767	96.44401
1768	86.40298
1769	72.13584
1770	56.11908
1771	44.82548
1772	51.13432
1773	64.14099
1774	58.27406
1775	52.54824
1776	57.31807
1777	70.16415
1778	86.03488
1779	97.10672
1780	105.3931
1781	114.0919
1782	122.2786
1783	125.783
1784	122.1654
1785	116.3756
1786	115.6658
1787	114.1221
1788	109.8218
1789	99.14182
1790	92.20672
1791	98.02296
1792	105.2213
1793	110.2469
1794	121.4447
1795	134.4127
1796	145.9805
1797	152.0803
1798	149.7747
1799	138.1468
1800	122.1857
1801	111.354
1802	101.7043
1803	93.55153
1804	97.25563
1805	108.7521
1806	114.0652
1807	116.8572
1808	117.5749
1809	109.0007
1810	93.87396
1811	79.11275
1812	76.41605
1813	90.00216
1814	109.4838
1815	123.2155
1816	122.4807
1817	113.3489
1818	106.6149
1819	94.46062
1820	82.70895
1821	76.36416
1822	85.71899
1823	111.1804
1824	141.2611
1825	160.3893
1826	160.9838
1827	150.3127
1828	144.5382
1829	137.6254
1830	132.5341
1831	131.6826
1832	134.6285
1833	137.9155
1834	142.39
1835	143.9372
1836	136.4291
1837	124.3362
1838	114.682
1839	106.614
1840	102.5133
1841	98.82276
1842	100.333
1843	107.0354
1844	111.7255
1845	113.6213
1846	121.9958
1847	125.8563
1848	118.1826
1849	109.4219
1850	103.7221
1851	100.0192
1852	98.50475
1853	96.91026
1854	94.53568
1855	91.35532
1856	85.92917
1857	84.08044
1858	88.85522
1859	94.34795
1860	103.1144
1861	127.0349
1862	144.4923
1863	143.1963
1864	145.5955
1865	145.8442
1866	126.8795
1867	119.3526
1868	137.5872
1869	140.7789
1870	134.6103
1871	144.6435
1872	149.4817
1873	140.6989
1874	135.2186
1875	128.1438
1876	107.6055
1877	98.49657
1878	108.6823
1879	112.8908
1880	115.1069
1881	122.3268
1882	126.9769
1883	126.1431
1884	123.6962
1885	119.0419
1886	113.178
1887	105.8271
1888	99.74
1889	95.4547
1890	97.74111
1891	106.942
1892	124.4277
1893	142.154
1894	149.4912
1895	144.4438
1896	132.9511
1897	124.3635
1898	118.5904
1899	105.4459
1900	99.01383
1901	105.9098
1902	119.0492
1903	129.7422
1904	128.1481
1905	119.3803
1906	109.7453
1907	106.8097
1908	104.1288
1909	91.76116
1910	87.04783
1911	95.29349
1912	108.1296
1913	122.5474
1914	133.4484
1915	146.6132
1916	154.112
1917	149.694
1918	133.6931
1919	114.4445
1920	103.2425
1921	102.0344
1922	100.8613
1923	100.0998
1924	99.33254
1925	103.9458
1926	105.5704
1927	96.06493
1928	95.30692
1929	105.2378
1930	109.5058
1931	116.3846
1932	128.5077
1933	128.1427
1934	118.5592
1935	118.3249
1936	118.1357
1937	117.2254
1938	132.052
1939	143.8786
1940	128.7161
1941	123.3841
1942	132.916
1943	128.7005
1944	112.0327
1945	90.23886
1946	80.99618
1947	87.95679
1948	97.45912
1949	98.86589
1950	90.85407
1951	106.1179
1952	127.546
1953	129.6144
1954	115.9316
1955	94.12666
1956	81.43911
1957	75.56812
1958	72.46075
1959	72.22923
1960	77.29655
1961	89.14048
1962	96.71996
1963	94.02
1964	87.72388
1965	81.41654
1966	80.10365
1967	77.18372
1968	77.07243
1969	90.857
1970	104.7935
1971	108.8682
1972	115.1253
1973	116.3202
1974	106.9893
1975	93.04188
1976	81.04308
1977	71.30283
1978	73.12672
1979	86.1799
1980	89.67802
1981	85.64733
1982	88.39166
1983	91.91875
1984	92.86943
1985	87.33481
1986	83.01116
1987	87.48516
1988	96.42767
1989	103.4126
1990	101.679
1991	95.3621
1992	90.07352
1993	91.46357
1994	96.78593
1995	100.075
1996	97.41755
1997	90.28913
1998	86.14603
1999	81.64886
2000	75.03563
