RamanShift	Intensity
190	2744.667
191	2707.914
192	2661.313
193	2618.418
194	2564.749
195	2515.198
196	2473.693
197	2448.422
198	2425.372
199	2379.468
200	2333.889
201	2285.313
202	2247.447
203	2209.062
204	2172.297
205	2142.625
206	2109.899
207	2083.301
208	2046.059
209	2009.619
210	1977.056
211	1954.687
212	1937.196
213	1906.52
214	1876.104
215	1844.886
216	1817.772
217	1781.741
218	1731.645
219	1682.43
220	1631.749
221	1593.93
222	1553.309
223	1521.064
224	1486.059
225	1446.022
226	1414.024
227	1383.199
228	1365.371
229	1347.572
230	1333.177
231	1307.173
232	1263.702
233	1220.132
234	1181.78
235	1156.497
236	1129.371
237	1105.486
238	1070.371
239	1019.897
240	968.9256
241	915.5201
242	876.11
243	837.4421
244	810.7113
245	781.9603
246	748.077
247	723.6035
248	704.022
249	700.4632
250	703.393
251	712.7479
252	713.1646
253	697.8209
254	678.9897
255	667.1053
256	658.4016
257	645.0378
258	628.8085
259	606.7878
260	580.2126
261	551.9722
262	523.062
263	494.8622
264	454.3032
265	410.9313
266	364.0991
267	320.9785
268	288.7224
269	265.8536
270	257.2056
271	241.1181
272	228.7175
273	218.594
274	213.4163
275	211.9462
276	211.8917
277	212.7774
278	207.6126
279	202.5786
280	208.2473
281	222.6882
282	224.4696
283	201.962
284	171.3133
285	149.5234
286	133.7807
287	110.0853
288	82.80608
289	51.46234
290	17.15749
291	-1.329723
292	3.058609
293	27.52403
294	46.33783
295	58.79029
296	66.69266
297	67.8522
298	73.19643
299	94.62572
300	115.4063
301	122.4202
302	114.3373
303	103.2751
304	91.81495
305	83.52184
306	83.52441
307	84.70504
308	74.37524
309	62.52909
310	60.92706
311	69.17532
312	70.97229
313	59.39406
314	39.98173
315	16.81727
316	-4.787028
317	-20.75201
318	-27.4124
319	-39.53035
320	-56.71182
321	-61.49893
322	-45.96312
323	-14.78521
324	25.2618
325	62.84257
326	89.34827
327	96.63748
328	95.84122
329	93.86549
330	88.49329
331	87.73972
332	86.70081
333	78.75785
334	68.71583
335	68.01838
336	80.76896
337	104.7704
338	138.3182
339	167.0389
340	178.2876
341	173.9325
342	180.994
343	199.6623
344	216.2701
345	224.2795
346	227.2332
347	234.4569
348	237.0817
349	234.0789
350	224.792
351	213.7881
352	204.0049
353	194.5132
354	183.7583
355	180.1386
356	189.2732
357	203.8671
358	202.5415
359	185.8327
360	178.8626
361	193.0717
362	205.2444
363	197.3575
364	178.354
365	158.562
366	142.609
367	135.0713
368	138.5228
369	137.3288
370	121.9479
371	101.5364
372	78.73927
373	62.20123
374	53.3588
375	57.01636
376	65.88024
377	76.98797
378	83.93765
379	79.55357
380	72.29997
381	75.70848
382	82.96131
383	84.21327
384	77.68376
385	66.43105
386	52.46711
387	36.33179
388	15.98864
389	2.855975
390	0.3922052
391	8.676161
392	12.51803
393	9.971907
394	6.92165
395	5.480481
396	2.112226
397	-7.022809
398	-15.5031
399	-19.09114
400	-16.2534
401	-12.67463
402	-8.007954
403	5.295712
404	29.71806
405	59.16868
406	94.06098
407	122.4678
408	145.2324
409	152.0323
410	147.388
411	131.7083
412	119.173
413	121.3285
414	127.2459
415	123.715
416	120.4041
417	126.1668
418	138.7184
419	148.5984
420	152.2777
421	151.8769
422	148.9776
423	142.554
424	134.3992
425	125.6815
426	116.8226
427	109.5263
428	99.81524
429	89.033
430	75.91464
431	61.00593
432	46.89484
433	31.98378
434	21.26756
435	10.22188
436	3.915941
437	2.228148
438	5.763913
439	7.278553
440	1.546868
441	-1.349013
442	6.303631
443	17.78202
444	26.15011
445	28.31735
446	23.72627
447	13.22002
448	9.922573
449	20.49026
450	29.74384
451	23.99319
452	12.44882
453	5.078452
454	3.523426
455	6.569118
456	16.62887
457	36.08158
458	64.38125
459	91.21885
460	109.0875
461	119.5882
462	140.0928
463	154.4576
464	154.8671
465	141.5018
466	135.9616
467	143.8604
468	149.5086
469	142.2764
470	139.45
471	152.295
472	180.1918
473	222.7633
474	267.7908
475	301.649
476	314.0877
477	324.309
478	340.3915
479	355.8898
480	375.7992
481	390.6749
482	403.0935
483	405.8748
484	401.9886
485	392.0555
486	388.7401
487	396.356
488	395.4594
489	375.0026
490	344.5365
491	312.5819
492	283.8134
493	249.584
494	226.0509
495	217.7325
496	228.7095
497	237.5035
498	232.4026
499	225.1399
500	220.4978
501	221.8888
502	230.8277
503	247.9484
504	272.4214
505	298.2092
506	318.3742
507	327.3275
508	339.4178
509	364.2388
510	377.5031
511	370.9244
512	339.5091
513	290.8403
514	238.0089
515	196.5624
516	181.6978
517	185.4459
518	206.0247
519	229.1344
520	238.8944
521	240.372
522	242.6139
523	239.3271
524	232.3681
525	223.7143
526	216.5912
527	215.6912
528	225.6301
529	247.1947
530	280.9394
531	326.092
532	367.1532
533	403.7885
534	422.0602
535	440.4608
536	445.411
537	438.2307
538	417.6019
539	394.4507
540	375.5309
541	356.559
542	333.2831
543	314.9821
544	296.3523
545	287.6956
546	282.7169
547	285.6572
548	292.1975
549	298.781
550	293.6618
551	272.0799
552	249.1453
553	236.1709
554	222.427
555	193.2665
556	158.5576
557	114.8514
558	77.30119
559	54.85272
560	54.45046
561	49.92575
562	35.51633
563	29.99121
564	40.06028
565	57.991
566	72.00702
567	85.87875
568	105.4124
569	122.7089
570	138.152
571	145.647
572	146.4203
573	138.4649
574	121.3755
575	96.80367
576	72.54174
577	55.59702
578	43.70363
579	20.01038
580	3.326527
581	4.841364
582	24.6296
583	42.889
584	53.52784
585	57.18408
586	52.05841
587	44.23841
588	38.68694
589	37.87926
590	44.02394
591	54.92289
592	64.51868
593	72.47866
594	82.45011
595	91.55253
596	100.5318
597	107.1415
598	111.4778
599	113.4075
600	107.9843
601	93.27766
602	78.85853
603	75.18227
604	78.11383
605	75.35165
606	70.29489
607	64.5979
608	61.19709
609	64.82293
610	76.49812
611	86.1398
612	88.21433
613	88.76533
614	92.67101
615	97.16996
616	102.7782
617	107.6155
618	113.0438
619	115.3008
620	111.4818
621	102.434
622	97.32384
623	98.64808
624	94.15707
625	78.90253
626	65.75402
627	63.64693
628	68.09558
629	69.84093
630	73.35776
631	79.67657
632	86.37306
633	91.46683
634	92.5065
635	90.99772
636	86.38148
637	77.76808
638	66.09023
639	59.18924
640	62.42006
641	70.95029
642	76.04913
643	82.72586
644	94.075
645	109.737
646	136.2676
647	164.4349
648	181.4301
649	181.0786
650	177.2182
651	173.4113
652	163.9167
653	148.8539
654	128.0737
655	99.08905
656	76.75453
657	65.44404
658	67.45002
659	64.68244
660	64.29875
661	68.47187
662	78.70271
663	95.89064
664	117.1025
665	131.8929
666	135.102
667	142.3971
668	163.0195
669	189.3555
670	220.1831
671	239.774
672	244.6928
673	233.6175
674	227.882
675	222.7358
676	214.0609
677	203.6814
678	191.0959
679	179.658
680	172.1659
681	170.8489
682	172.5794
683	174.8102
684	171.54
685	157.7923
686	137.642
687	115.5017
688	96.39436
689	74.76295
690	63.77266
691	68.68959
692	87.63779
693	94.31459
694	85.62923
695	84.2225
696	95.36529
697	100.9841
698	93.13559
699	83.55627
700	81.85767
701	81.37086
702	74.9158
703	69.30888
704	70.46052
705	73.88687
706	67.45867
707	57.43977
708	56.42441
709	67.09109
710	84.87508
711	106.0158
712	125.4213
713	137.5337
714	143.2097
715	143.9585
716	139.4229
717	134.2666
718	127.6837
719	122.2543
720	115.3286
721	100.4452
722	85.50536
723	76.62807
724	76.00003
725	76.51205
726	76.339
727	66.00896
728	46.96588
729	35.228
730	37.52084
731	37.10659
732	25.97716
733	14.55803
734	8.109127
735	5.370559
736	-0.02874231
737	3.779874
738	26.76668
739	53.55471
740	65.20552
741	60.63405
742	56.35921
743	49.03605
744	34.77481
745	16.04784
746	-1.942748
747	-13.52072
748	-16.01209
749	-7.048237
750	18.45736
751	57.50044
752	95.49398
753	121.4738
754	131.8699
755	137.9903
756	134.3619
757	138.524
758	134.9297
759	108.3748
760	74.60285
761	53.43875
762	57.67466
763	85.5291
764	132.2366
765	175.4144
766	203.1357
767	243.094
768	294.5721
769	351.8904
770	406.4915
771	452.6861
772	493.5136
773	518.1918
774	537.5848
775	546.3392
776	565.2357
777	576.284
778	575.3309
779	565.1041
780	563.7544
781	564.0566
782	553.2344
783	533.5787
784	516.4467
785	501.2934
786	467.0435
787	415.9628
788	356.9129
789	303.7309
790	254.9979
791	218.1628
792	202.2991
793	206.6474
794	217.257
795	213.6644
796	203.552
797	190.4632
798	172.8506
799	149.5845
800	124.9988
801	95.92803
802	70.17099
803	42.27343
804	23.30252
805	8.293171
806	3.829663
807	0.2332644
808	1.307344
809	9.342409
810	25.17525
811	49.1288
812	77.6573
813	110.4335
814	142.2897
815	173.147
816	201.3747
817	219.1929
818	226.964
819	223.217
820	216.3011
821	207.1567
822	203.175
823	202.4984
824	198.3864
825	199.746
826	210.8529
827	232.5013
828	262.4981
829	296.5015
830	339.3941
831	375.3316
832	398.7484
833	399.8905
834	395.0256
835	388.4919
836	396.9955
837	425.8345
838	463.8864
839	504.9111
840	560.1278
841	627.6487
842	703.2829
843	782.0608
844	854.3527
845	920.4761
846	965.8485
847	1004.559
848	1020.776
849	1032.686
850	1021.793
851	999.1819
852	958.7539
853	905.0931
854	847.631
855	780.5225
856	721.1723
857	659.1053
858	611.9788
859	565.3394
860	526.8895
861	466.7649
862	402.0033
863	338.2106
864	295.9201
865	258.6376
866	237.4613
867	221.0686
868	212.9294
869	215.817
870	228.4852
871	235.8799
872	229.9557
873	216.5902
874	199.0599
875	168.5071
876	125.0607
877	85.43147
878	63.08368
879	49.99166
880	31.6173
881	21.93919
882	19.89628
883	22.59788
884	16.33301
885	12.66947
886	20.53126
887	32.02831
888	34.24141
889	33.95719
890	42.05181
891	55.54414
892	73.03651
893	90.82249
894	108.8168
895	124.8893
896	149.8404
897	175.6891
898	195.5221
899	206.2287
900	228.3575
901	253.7365
902	268.8071
903	266.7334
904	256.3541
905	239.6057
906	219.6095
907	201.95
908	189.3525
909	184.2954
910	171.2679
911	147.5507
912	130.4964
913	127.9783
914	123.5613
915	109.789
916	92.02816
917	72.91205
918	57.36116
919	48.01643
920	47.05952
921	52.4734
922	58.5931
923	57.33886
924	54.3093
925	54.38842
926	52.54178
927	45.71362
928	35.9987
929	23.83773
930	18.21028
931	23.20559
932	38.1111
933	56.56028
934	73.15407
935	81.93384
936	85.24094
937	99.88091
938	110.5595
939	108.3743
940	90.61568
941	61.24427
942	32.17776
943	18.49544
944	21.15404
945	18.70918
946	13.64252
947	-0.081218
948	-12.43526
949	-6.226452
950	12.94852
951	20.35621
952	16.45253
953	14.2845
954	16.96772
955	31.27191
956	54.49846
957	79.83313
958	100.1974
959	120.0146
960	134.4964
961	155.4817
962	176.4771
963	187.3425
964	182.5633
965	170.1156
966	153.5404
967	143.4251
968	142.8558
969	136.7896
970	125.7549
971	122.8277
972	130.0075
973	131.724
974	122.8713
975	104.6578
976	80.59748
977	57.07359
978	41.42371
979	41.43444
980	59.01589
981	75.96719
982	84.65685
983	113.2578
984	165.0187
985	203.4036
986	209.692
987	203.4627
988	192.3082
989	172.3421
990	148.994
991	129.8589
992	121.9601
993	110.2673
994	91.10748
995	90.28028
996	117.9484
997	151.087
998	174.2843
999	200.5687
1000	229.8723
1001	246.5594
1002	242.5728
1003	226.4449
1004	206.8405
1005	173.4553
1006	128.5049
1007	85.45752
1008	55.3867
1009	28.90573
1010	2.668632
1011	-8.886634
1012	-2.080008
1013	12.95765
1014	26.29838
1015	35.71664
1016	37.2333
1017	43.41842
1018	59.77035
1019	64.3218
1020	47.75157
1021	31.85797
1022	29.4301
1023	34.68662
1024	45.01243
1025	59.05779
1026	72.97209
1027	87.89418
1028	101.7197
1029	118.8444
1030	139.0678
1031	146.4139
1032	134.4731
1033	120.989
1034	117.63
1035	121.8642
1036	133.6232
1037	150.9388
1038	169.4264
1039	196.1367
1040	228.9969
1041	260.3814
1042	281.6644
1043	300.3999
1044	316.809
1045	330.8061
1046	342.4796
1047	360.4102
1048	383.2674
1049	400.532
1050	405.7512
1051	405.1701
1052	399.9364
1053	389.5329
1054	376.5341
1055	360.336
1056	346.6029
1057	342.5802
1058	351.203
1059	361.0917
1060	367.2283
1061	369.0514
1062	364.9597
1063	359.4894
1064	353.7423
1065	345.7541
1066	336.8586
1067	324.6209
1068	312.8771
1069	302.6409
1070	298.5471
1071	297.7875
1072	304.0825
1073	318.1998
1074	339.9919
1075	368.989
1076	396.5569
1077	419.0171
1078	435.0836
1079	470.4236
1080	509.2798
1081	535.3614
1082	539.9988
1083	540.5754
1084	533.8597
1085	533.9571
1086	532.5612
1087	521.1044
1088	497.7497
1089	454.6037
1090	420.807
1091	423.0416
1092	447.0368
1093	449.8395
1094	439.6517
1095	423.254
1096	404.0404
1097	386.2819
1098	374.7823
1099	365.535
1100	364.4595
1101	365.3085
1102	382.119
1103	420.8018
1104	458.9052
1105	478.6495
1106	481.2182
1107	473.6924
1108	454.0987
1109	429.5426
1110	409.2979
1111	401.595
1112	396.0959
1113	387.473
1114	379.0369
1115	371.7018
1116	364.1432
1117	357.1125
1118	352.0616
1119	350.8613
1120	355.3407
1121	365.0117
1122	374.6505
1123	379.427
1124	374.8968
1125	360.5829
1126	343.6044
1127	329.9785
1128	323.7588
1129	327.6569
1130	334.3868
1131	341.0068
1132	341.0509
1133	333.8143
1134	324.2168
1135	313.515
1136	304.314
1137	295.6751
1138	279.2251
1139	263.7714
1140	255.0159
1141	249.4489
1142	235.1917
1143	221.1095
1144	209.0912
1145	204.606
1146	206.7682
1147	213.022
1148	217.6888
1149	215.2198
1150	202.4056
1151	182.0165
1152	159.6789
1153	127.8765
1154	91.0468
1155	64.40789
1156	58.75291
1157	59.60791
1158	63.65051
1159	70.11633
1160	75.45792
1161	75.26089
1162	67.87868
1163	57.98586
1164	45.79974
1165	25.46127
1166	5.068922
1167	-6.759138
1168	-4.67101
1169	2.425817
1170	16.01663
1171	31.84082
1172	46.67934
1173	63.50825
1174	71.97382
1175	71.88786
1176	59.51291
1177	40.41953
1178	19.70568
1179	4.757551
1180	-3.513806
1181	-6.767235
1182	-0.919306
1183	12.58287
1184	26.59108
1185	35.3798
1186	46.5084
1187	59.36392
1188	66.31527
1189	64.98193
1190	65.81357
1191	69.26953
1192	71.41276
1193	73.72147
1194	83.64079
1195	95.9612
1196	100.4614
1197	100.8934
1198	113.1964
1199	125.139
1200	123.4596
1201	116.3452
1202	118.1161
1203	124.4416
1204	132.834
1205	138.3193
1206	136.4582
1207	134.3624
1208	136.9066
1209	146.5164
1210	163.0247
1211	181.0703
1212	194.0108
1213	193.4797
1214	180.4739
1215	184.7693
1216	204.7791
1217	214.9345
1218	212.9267
1219	210.139
1220	208.2247
1221	214.0662
1222	222.5656
1223	227.8683
1224	224.2826
1225	208.1219
1226	192.332
1227	189.2792
1228	200.0004
1229	221.0642
1230	235.9308
1231	232.2407
1232	233.9116
1233	249.389
1234	258.7936
1235	257.9344
1236	270.2632
1237	295.5962
1238	321.3113
1239	341.4261
1240	366.1028
1241	380.0769
1242	372.1121
1243	347.9891
1244	336.8727
1245	327.1703
1246	303.5091
1247	281.6317
1248	270.4377
1249	270.8377
1250	278.6351
1251	288.4158
1252	293.0489
1253	294.7454
1254	295.5975
1255	313.3223
1256	345.6226
1257	366.1825
1258	363.3938
1259	343.796
1260	313.0815
1261	292.9829
1262	280.1077
1263	253.6541
1264	228.0014
1265	203.0413
1266	191.5512
1267	193.3077
1268	201.2673
1269	204.1696
1270	201.4773
1271	192.4199
1272	191.0772
1273	200.7881
1274	202.1091
1275	193.2871
1276	192.9146
1277	197.8058
1278	187.6225
1279	173.881
1280	184.6317
1281	201.6667
1282	193.1192
1283	174.4378
1284	164.0266
1285	157.2424
1286	150.7964
1287	158.3883
1288	182.6254
1289	195.4934
1290	187.0265
1291	190.3015
1292	206.2218
1293	208.3193
1294	195.6165
1295	183.4444
1296	176.559
1297	177.4237
1298	186.3117
1299	199.1046
1300	203.7228
1301	189.7438
1302	168.8107
1303	152.9542
1304	133.8755
1305	111.9346
1306	93.17791
1307	86.04307
1308	95.43106
1309	119.6198
1310	141.8589
1311	154.0401
1312	156.9794
1313	149.7693
1314	149.3354
1315	137.9843
1316	101.9226
1317	69.03732
1318	60.9785
1319	56.65757
1320	44.53319
1321	32.65704
1322	25.74588
1323	27.18997
1324	37.46365
1325	49.49847
1326	57.33192
1327	52.83672
1328	44.51369
1329	54.00754
1330	64.57531
1331	60.30843
1332	46.00965
1333	27.67642
1334	19.16718
1335	27.63409
1336	27.0869
1337	14.48186
1338	13.99534
1339	29.10143
1340	50.38796
1341	73.05345
1342	95.95895
1343	111.1423
1344	120.497
1345	124.5331
1346	132.6751
1347	132.8137
1348	121.7095
1349	109.8112
1350	102.6038
1351	91.93736
1352	79.27517
1353	64.00394
1354	52.44154
1355	45.84972
1356	45.33535
1357	41.51968
1358	38.10515
1359	33.74331
1360	38.00083
1361	54.78067
1362	75.73079
1363	93.75382
1364	113.0735
1365	125.619
1366	125.6339
1367	110.126
1368	92.19647
1369	69.95289
1370	35.05356
1371	13.19287
1372	18.83508
1373	36.19667
1374	48.57296
1375	62.3446
1376	72.96169
1377	68.21399
1378	51.09798
1379	51.51973
1380	58.44476
1381	37.62808
1382	8.177034
1383	-6.272666
1384	-7.812614
1385	-3.365829
1386	2.431349
1387	4.328166
1388	15.82654
1389	37.04296
1390	59.0159
1391	73.63327
1392	79.70893
1393	80.03217
1394	93.99562
1395	110.7768
1396	125.0676
1397	125.5989
1398	109.3408
1399	98.32236
1400	101.6501
1401	93.30915
1402	78.02374
1403	81.57664
1404	103.1133
1405	127.8396
1406	148.7424
1407	160.0737
1408	162.4512
1409	162.4722
1410	160.437
1411	159.7308
1412	164.8371
1413	176.9082
1414	193.7073
1415	210.6217
1416	225.2359
1417	233.5528
1418	239.5246
1419	244.6483
1420	254.0132
1421	261.3336
1422	264.0348
1423	269.8551
1424	278.6416
1425	286.6935
1426	294.4685
1427	311.1384
1428	326.6659
1429	332.6765
1430	333.6396
1431	337.2351
1432	336.6017
1433	329.7184
1434	312.1011
1435	289.6528
1436	276.326
1437	276.4951
1438	278.5848
1439	287.2354
1440	298.5313
1441	316.1704
1442	339.1815
1443	367.3922
1444	392.3009
1445	392.3067
1446	372.3357
1447	382.7879
1448	408.1982
1449	409.457
1450	410.0174
1451	434.1964
1452	459.6132
1453	473.8504
1454	503.8654
1455	544.3635
1456	559.278
1457	546.8892
1458	551.7285
1459	552.3181
1460	526.5852
1461	493.6621
1462	473.0456
1463	428.3479
1464	359.887
1465	314.7355
1466	308.4299
1467	298.0782
1468	292.5206
1469	285.7277
1470	285.7588
1471	293.2257
1472	301.2391
1473	302.7289
1474	293.5767
1475	275.1838
1476	258.486
1477	247.7139
1478	239.3075
1479	229.7017
1480	208.0846
1481	184.8772
1482	168.0642
1483	155.5402
1484	147.634
1485	134.526
1486	118.2099
1487	95.83507
1488	80.71981
1489	78.60912
1490	84.06832
1491	86.3169
1492	90.19807
1493	95.34579
1494	104.3691
1495	106.7078
1496	80.32899
1497	39.38099
1498	11.1276
1499	-3.882574
1500	-9.141249
1501	-7.009855
1502	-0.5084704
1503	15.89784
1504	37.04627
1505	55.11843
1506	66.76414
1507	81.28211
1508	87.80379
1509	84.1526
1510	76.47838
1511	68.66907
1512	51.51234
1513	32.92444
1514	29.81422
1515	38.94415
1516	40.97955
1517	52.85684
1518	81.13591
1519	104.8813
1520	113.7008
1521	119.6721
1522	119.2522
1523	112.4343
1524	104.4851
1525	107.5877
1526	104.3381
1527	84.87768
1528	70.64993
1529	68.0924
1530	57.21058
1531	46.30458
1532	48.38636
1533	63.41693
1534	82.49983
1535	108.9736
1536	137.6493
1537	149.5521
1538	139.844
1539	136.0842
1540	132.7395
1541	118.4509
1542	104.7122
1543	99.96114
1544	111.5221
1545	137.5793
1546	156.1789
1547	163.3845
1548	181.384
1549	197.8274
1550	205.027
1551	210.9045
1552	222.925
1553	228.8092
1554	225.1115
1555	223.7158
1556	216.8413
1557	187.07
1558	157.773
1559	151.4411
1560	149.8238
1561	145.5159
1562	157.6949
1563	185.7526
1564	216.4853
1565	235.3027
1566	234.9467
1567	223.6541
1568	215.6542
1569	202.4116
1570	185.6362
1571	160.5779
1572	145.2011
1573	158.9221
1574	176.647
1575	165.8327
1576	150.6761
1577	143.7088
1578	144.1504
1579	152.4178
1580	159.725
1581	168.9453
1582	182.346
1583	206.7493
1584	241.9744
1585	264.1852
1586	264.9083
1587	268.1217
1588	265.0855
1589	251.9383
1590	235.8918
1591	225.4081
1592	214.6666
1593	205.725
1594	197.3806
1595	199.2643
1596	220.5087
1597	243.5769
1598	249.7075
1599	253.4571
1600	257.3076
1601	255.1961
1602	243.6754
1603	221.6201
1604	198.7832
1605	185.3354
1606	186.1963
1607	199.4321
1608	202.5518
1609	198.5699
1610	211.1554
1611	222.7263
1612	215.0416
1613	202.5035
1614	195.2283
1615	195.0967
1616	200.6028
1617	198.589
1618	195.1042
1619	196.7379
1620	208.1503
1621	226.6576
1622	225.4582
1623	201.4803
1624	173.1451
1625	154.9452
1626	157.2311
1627	162.9897
1628	160.6935
1629	167.5318
1630	182.5264
1631	197.7227
1632	203.9148
1633	198.1533
1634	181.1589
1635	161.1537
1636	158.3001
1637	176.6677
1638	198.6335
1639	218.8497
1640	232.7176
1641	235.4618
1642	227.6769
1643	216.1712
1644	200.7779
1645	171.2943
1646	143.3031
1647	130.7334
1648	124.844
1649	123.08
1650	136.8902
1651	160.8611
1652	173.9453
1653	185.7681
1654	208.6073
1655	222.0865
1656	218.6963
1657	217.6477
1658	216.8923
1659	209.4918
1660	205.3629
1661	212.0724
1662	207.8497
1663	190.2271
1664	179.4032
1665	177.957
1666	178.8771
1667	176.4916
1668	165.7084
1669	163.8088
1670	173.9246
1671	184.7296
1672	186.8213
1673	171.6538
1674	154.4125
1675	148.2972
1676	153.6922
1677	165.5773
1678	163.2218
1679	155.7571
1680	155.6009
1681	159.6143
1682	166.0935
1683	168.5678
1684	172.7164
1685	195.5265
1686	216.6966
1687	220.6417
1688	223.4739
1689	224.223
1690	208.7325
1691	185.026
1692	167.6748
1693	159.3114
1694	160.8151
1695	168.5503
1696	175.645
1697	165.2438
1698	159.3378
1699	180.3092
1700	199.356
1701	205.14
1702	217.6629
1703	232.6578
1704	248.889
1705	256.3293
1706	251.147
1707	235.2924
1708	215.02
1709	201.5499
1710	191.7656
1711	174.5866
1712	171.1174
1713	187.4876
1714	205.4335
1715	224.1718
1716	256.1227
1717	278.7823
1718	279.102
1719	276.3802
1720	270.511
1721	249.0365
1722	222.7463
1723	205.5403
1724	191.5963
1725	179.0576
1726	167.1483
1727	155.5572
1728	133.8028
1729	121.594
1730	128.7599
1731	134.9658
1732	139.8985
1733	161.7737
1734	183.3153
1735	188.7645
1736	180.0121
1737	163.137
1738	156.8131
1739	159.7958
1740	158.4325
1741	161.1978
1742	169.413
1743	179.0315
1744	179.1647
1745	156.2434
1746	124.9889
1747	105.7011
1748	94.17061
1749	94.11456
1750	104.9803
1751	114.8912
1752	105.4343
1753	93.39668
1754	87.71113
1755	84.47221
1756	82.73223
1757	78.19574
1758	63.82146
1759	39.45752
1760	29.17704
1761	31.45265
1762	13.53526
1763	-2.726368
1764	-1.219038
1765	14.74619
1766	38.60435
1767	57.89825
1768	66.58107
1769	66.5177
1770	76.44671
1771	98.83015
1772	103.2042
1773	90.92897
1774	77.65218
1775	73.96251
1776	84.82804
1777	87.27164
1778	80.20566
1779	73.02315
1780	66.89342
1781	62.64592
1782	43.66249
1783	19.75067
1784	15.09164
1785	23.64135
1786	31.45304
1787	44.3267
1788	61.36249
1789	85.92756
1790	106.5023
1791	116.0748
1792	114.9678
1793	107.9145
1794	115.6527
1795	114.8738
1796	76.3951
1797	46.58441
1798	46.7001
1799	50.45394
1800	59.61965
1801	71.42128
1802	77.03625
1803	74.08739
1804	84.50729
1805	96.98153
1806	91.98871
1807	75.33841
1808	55.37415
1809	39.43692
1810	31.75604
1811	23.88486
1812	23.44809
1813	29.97302
1814	35.13918
1815	40.23476
1816	58.0512
1817	62.43177
1818	42.47879
1819	48.40567
1820	79.18309
1821	96.00155
1822	109.3712
1823	126.7502
1824	130.7198
1825	121.0013
1826	118.8165
1827	113.8994
1828	101.28
1829	95.31844
1830	98.15383
1831	97.43597
1832	96.97945
1833	97.77499
1834	87.86762
1835	70.99674
1836	61.79372
1837	61.5955
1838	66.28752
1839	61.11282
1840	47.4587
1841	41.08473
1842	40.89212
1843	42.40709
1844	28.27217
1845	4.664485
1846	-5.327393
1847	1.828611
1848	20.86053
1849	43.88833
1850	61.97306
1851	75.94983
1852	79.45918
1853	75.11605
1854	66.14581
1855	59.15882
1856	63.75735
1857	68.09504
1858	62.27699
1859	62.51294
1860	69.40127
1861	76.29721
1862	77.90857
1863	72.27572
1864	70.64527
1865	73.42851
1866	76.10101
1867	73.54339
1868	65.83194
1869	73.62597
1870	93.16879
1871	110.5144
1872	116.5849
1873	106.4954
1874	82.38717
1875	58.34042
1876	52.07095
1877	45.20959
1878	33.08614
1879	34.53575
1880	50.14943
1881	70.19817
1882	90.74573
1883	105.0169
1884	114.1817
1885	117.6515
1886	122.73
1887	118.9364
1888	105.3593
1889	87.54712
1890	69.69582
1891	55.98848
1892	49.54
1893	52.4022
1894	59.38075
1895	58.09844
1896	42.25132
1897	45.87675
1898	60.22999
1899	52.36874
1900	43.23482
1901	44.06399
1902	41.75289
1903	37.18849
1904	32.40431
1905	30.01036
1906	31.82085
1907	37.26446
1908	43.87268
1909	47.72795
1910	68.66378
1911	100.5333
1912	118.3658
1913	119.4519
1914	111.6115
1915	106.1051
1916	101.8984
1917	87.08715
1918	67.84988
1919	51.45137
1920	42.44551
1921	43.06321
1922	44.88061
1923	48.33369
1924	49.78532
1925	40.59219
1926	38.89331
1927	61.94507
1928	90.50387
1929	109.0384
1930	115.4886
1931	112.6993
1932	111.0835
1933	111.6928
1934	103.1784
1935	66.17369
1936	34.1531
1937	30.89481
1938	46.77191
1939	67.90198
1940	67.98831
1941	65.48386
1942	67.52097
1943	81.38824
1944	84.22361
1945	61.85756
1946	36.05403
1947	24.3829
1948	36.87901
1949	54.03992
1950	60.1758
1951	65.9898
1952	71.44909
1953	79.62864
1954	70.05749
1955	47.05449
1956	40.01785
1957	43.81876
1958	49.92065
1959	52.06649
1960	52.88144
1961	60.90852
1962	71.94112
1963	79.45515
1964	72.49768
1965	65.39975
1966	75.07278
1967	76.25481
1968	62.48993
1969	38.22341
1970	21.85523
1971	22.95731
1972	10.27556
1973	1.300609
1974	17.61945
1975	36.7193
1976	48.44012
1977	60.16117
1978	72.70469
1979	86.81342
1980	86.6131
1981	64.4197
1982	24.15168
1983	4.04084
1984	19.49908
1985	35.49299
1986	56.25975
1987	79.18728
1988	105.7101
1989	119.4826
1990	110.4939
1991	83.59824
1992	55.4518
1993	47.05163
1994	56.56294
1995	69.07922
1996	81.44122
1997	89.19238
1998	93.58797
1999	103.4595
2000	118.8399
2001	118.9031
2002	108.8928
2003	102.3544
2004	84.20116
2005	59.52037
2006	39.91103
2007	36.12591
2008	46.36731
2009	40.12766
2010	31.82725
2011	38.99428
2012	47.17894
2013	51.09519
2014	50.29711
2015	44.36719
2016	39.56295
2017	58.53528
2018	68.88538
2019	39.94882
2020	32.80132
2021	49.85094
2022	56.38528
2023	64.27946
2024	73.42319
2025	75.56586
2026	73.14997
2027	71.43121
2028	54.26246
2029	32.7259
2030	29.24769
2031	23.66822
2032	15.73323
2033	31.16775
2034	56.22599
2035	73.46439
2036	97.81704
2037	114.5932
2038	111.3386
2039	94.00847
2040	73.23065
2041	60.38507
2042	55.69357
2043	55.8235
2044	55.26371
2045	62.00948
2046	81.54477
2047	85.29996
2048	67.95948
2049	44.09728
2050	39.30147
2051	61.73799
2052	78.53664
2053	92.16244
2054	103.3769
2055	100.8426
2056	84.14632
2057	63.83577
2058	47.38364
2059	39.69564
2060	27.77539
2061	31.43743
2062	53.75732
2063	75.98544
2064	88.08141
2065	87.13599
2066	78.14648
2067	67.65742
2068	64.53081
2069	58.5919
2070	50.76204
2071	55.97104
2072	62.79763
2073	59.26545
2074	44.73477
2075	22.94263
2076	1.507596
2077	-1.623314
2078	17.17567
2079	43.7971
2080	65.11142
2081	70.1282
2082	65.5315
2083	57.46347
2084	56.88168
2085	62.32627
2086	82.49512
2087	119.1121
2088	146.2654
2089	152.5676
2090	154.2143
2091	131.4868
2092	95.60721
2093	82.14445
2094	73.03928
2095	56.64157
2096	64.43123
2097	82.74271
2098	87.48424
2099	99.01009
2100	106.6487
2101	93.83318
2102	81.22329
2103	73.83929
2104	54.75927
2105	42.12223
2106	43.05622
2107	37.96471
2108	45.03878
2109	71.19355
2110	82.88445
2111	76.3638
2112	64.1835
2113	60.90546
2114	69.07296
2115	76.63929
2116	83.07976
2117	88.89835
2118	106.579
2119	113.9042
2120	102.0971
2121	94.31358
2122	86.28892
2123	75.87013
2124	78.35446
2125	88.6456
2126	91.09991
2127	94.28899
2128	95.97569
2129	90.90765
2130	92.79963
2131	99.06675
2132	84.82242
2133	65.86995
2134	56.0943
2135	55.32072
2136	60.2284
2137	61.04119
2138	46.45638
2139	31.93184
2140	37.52797
2141	46.70189
2142	53.64031
2143	56.00138
2144	58.64268
2145	59.19779
2146	51.8987
2147	31.99968
2148	9.151875
2149	4.949381
2150	8.704876
2151	9.400675
2152	14.51537
2153	19.88321
2154	21.70659
2155	23.7696
2156	28.46319
2157	38.32638
2158	62.25557
2159	83.11668
2160	78.13866
2161	62.07937
2162	46.15788
2163	40.68229
2164	24.65367
2165	1.666949
2166	-5.139142
2167	8.96333
2168	34.48333
2169	50.26468
2170	52.51014
2171	46.4482
2172	53.27626
2173	60.27613
2174	55.33534
2175	51.05356
2176	51.3357
2177	57.22657
2178	64.2001
2179	63.3485
2180	47.53799
2181	49.99602
2182	68.39697
2183	76.64943
2184	81.01266
2185	80.9716
2186	77.65632
2187	68.87824
2188	55.48629
2189	33.04065
2190	26.15498
2191	40.91086
2192	49.85493
2193	54.13182
2194	52.85187
2195	46.78555
2196	37.83404
2197	29.15416
2198	15.69653
2199	8.196376
2200	13.33731
2201	13.59773
2202	12.97424
2203	17.25372
2204	19.43574
2205	20.03636
2206	22.2607
2207	24.65962
2208	29.95401
2209	41.76347
2210	25.70551
2211	-1.509378
2212	7.968821
2213	29.1474
2214	46.59535
2215	50.9117
2216	60.50817
2217	75.59637
2218	84.28385
2219	67.56615
2220	34.60854
2221	22.73339
2222	27.54634
2223	37.96581
2224	32.28349
2225	29.14314
2226	37.30601
2227	46.82515
2228	57.66895
2229	69.65782
2230	91.90051
2231	111.8437
2232	118.8623
2233	114.4698
2234	100.0671
2235	84.63302
2236	70.15993
2237	65.52953
2238	71.23274
2239	71.10336
2240	62.1868
2241	46.12575
2242	28.80336
2243	21.3184
2244	26.54387
2245	22.50529
2246	32.52252
2247	68.79234
2248	82.22052
2249	81.51691
2250	88.95526
2251	101.4317
2252	115.5303
2253	124.0228
2254	107.9362
2255	84.1077
2256	74.49383
2257	43.43838
2258	10.90471
2259	1.787967
2260	1.930984
2261	10.06177
2262	18.55165
2263	28.56727
2264	39.61849
2265	51.4479
2266	60.97937
2267	68.60838
2268	76.21968
2269	67.65197
2270	55.71123
2271	58.98731
2272	63.88165
2273	73.39113
2274	89.65266
2275	124.3244
2276	142.533
2277	118.0461
2278	97.30113
2279	87.48979
2280	88.37345
2281	88.03556
2282	96.35979
2283	118.7094
2284	153.1756
2285	166.7397
2286	141.7858
2287	124.7877
2288	106.4856
2289	81.39378
2290	58.00135
2291	50.31606
2292	61.41845
2293	76.86396
2294	88.04057
2295	87.49477
2296	83.6677
2297	67.80351
2298	47.49519
2299	49.59085
2300	70.36882
2301	96.23737
2302	121.4825
2303	138.3024
2304	140.6798
2305	133.351
2306	107.2547
2307	81.09252
2308	92.75839
2309	105.9682
2310	100.6849
2311	81.21353
2312	80.38083
2313	96.22491
2314	91.87868
2315	94.1855
2316	110.0589
2317	133.9015
2318	145.3503
2319	138.3234
2320	123.5416
2321	121.5865
2322	132.9598
2323	143.6628
2324	133.9817
2325	117.7365
2326	116.951
2327	108.4229
2328	88.40857
2329	61.7644
2330	54.71762
2331	53.0163
2332	37.99682
2333	6.171557
2334	-4.197855
2335	21.74277
2336	42.34747
2337	57.91148
2338	69.88614
2339	98.54949
2340	106.9947
2341	91.78928
2342	87.58431
2343	88.6159
2344	96.76801
2345	112.2502
2346	127.1643
2347	131.9987
2348	124.0047
2349	119.0098
2350	113.2501
2351	100.2762
2352	90.82925
2353	88.38573
2354	89.37935
2355	78.14083
2356	65.12066
2357	59.41353
2358	53.03951
2359	52.94535
2360	61.45053
2361	77.58566
2362	83.30589
2363	75.24039
2364	70.40301
2365	70.98518
2366	77.75526
2367	86.86269
2368	103.8317
2369	127.1826
2370	149.3166
2371	150.3961
2372	139.6305
2373	133.9603
2374	118.5668
2375	101.7174
2376	88.78809
2377	66.89211
2378	63.57294
2379	78.79961
2380	78.2606
2381	72.73704
2382	68.41658
2383	69.57335
2384	71.04277
2385	66.35401
2386	52.65126
2387	49.71443
2388	47.6306
2389	34.53725
2390	18.81907
2391	19.67467
2392	42.91279
2393	68.37479
2394	89.32262
2395	98.90522
2396	102.2013
2397	94.67387
2398	76.484
2399	52.76854
2400	48.4278
2401	63.46727
2402	79.22946
2403	82.73041
2404	77.4284
2405	68.79624
2406	48.14608
2407	21.26515
2408	2.538231
2409	0.6768565
2410	20.4008
2411	47.97012
2412	59.69792
2413	64.80099
2414	57.42894
2415	39.3818
2416	24.58205
2417	22.91102
2418	35.29108
2419	52.44182
2420	60.44348
2421	58.97812
2422	68.07182
2423	67.80298
2424	48.39812
2425	13.56404
2426	7.425928
2427	16.86631
2428	15.40437
2429	8.473097
2430	17.18223
2431	40.73791
2432	43.71865
2433	23.03891
2434	1.252538
2435	13.956
2436	36.16351
2437	53.48623
2438	55.50666
2439	56.59862
2440	50.46041
2441	36.9073
2442	19.84585
2443	13.39047
2444	31.17158
2445	75.07571
2446	89.6488
2447	88.01127
2448	105.1845
2449	95.77876
2450	68.39462
2451	43.39551
2452	28.27551
2453	21.13015
2454	22.93168
2455	36.55716
2456	72.71212
2457	102.2476
2458	94.99639
2459	80.54833
2460	55.75915
2461	28.11546
2462	0.5092025
2463	6.42647
2464	42.22294
2465	70.29481
2466	89.86129
2467	103.5469
2468	116.8344
2469	115.5245
2470	109.7829
2471	111.2669
2472	121.4512
2473	111.8103
2474	90.9585
2475	87.14452
2476	87.67333
2477	88.21875
2478	85.92116
2479	89.60069
2480	87.05019
2481	74.36277
2482	58.24984
2483	40.9333
2484	24.90495
2485	12.7689
2486	12.75464
2487	30.25776
2488	48.12218
2489	34.23616
2490	39.94606
2491	57.80392
2492	53.54254
2493	47.32368
2494	42.54081
2495	47.52824
2496	77.21577
2497	87.31612
2498	77.00043
2499	81.74203
2500	74.08359
2501	61.15955
2502	57.08002
2503	65.66853
2504	82.66771
2505	97.77969
2506	104.1766
2507	115.568
2508	112.6954
2509	88.78492
2510	91.96181
2511	100.63
2512	96.25962
2513	75.22166
2514	63.17847
2515	64.42223
2516	70.90614
2517	72.78453
2518	87.84868
2519	116.0418
2520	136.0013
2521	126.1997
2522	106.2309
2523	108.9862
2524	113.6892
2525	123.3907
2526	131.5782
2527	127.2057
2528	122.7006
2529	110.8704
2530	88.60263
2531	85.73808
2532	94.30778
2533	105.2351
2534	116.2387
2535	96.24081
2536	78.75393
2537	96.71902
2538	94.74891
2539	77.4368
2540	51.26564
2541	24.08504
2542	15.96375
2543	29.09148
2544	52.71539
2545	90.03394
2546	116.2072
2547	121.6477
2548	119.039
2549	108.1688
2550	102.1122
2551	105.9975
2552	100.1428
2553	76.05304
2554	54.89233
2555	64.03815
2556	61.71165
2557	79.40376
2558	114.6903
2559	115.9165
2560	110.1424
2561	100.6233
2562	88.76003
2563	87.97626
2564	78.34673
2565	61.60922
2566	59.70685
2567	22.84459
2568	-8.310188
2569	0.3976789
2570	4.707108
2571	24.76153
2572	60.00302
2573	96.34181
2574	125.4372
2575	128.7862
2576	112.5266
2577	107.7133
2578	107.0239
2579	104.5924
2580	98.21085
2581	101.0338
2582	114.7466
2583	123.7985
2584	111.1239
2585	109.275
2586	109.2804
2587	102.5499
2588	92.23814
2589	74.61904
2590	62.0966
2591	66.7429
2592	83.67855
2593	106.7879
2594	121.6301
2595	119.4448
2596	113.3494
2597	92.79702
2598	62.34137
2599	41.53933
2600	56.54012
2601	82.32585
2602	85.45768
2603	90.00107
2604	96.80402
2605	105.556
2606	112.3148
2607	115.1554
2608	116.5532
2609	112.1144
2610	92.31422
2611	84.51614
2612	80.7438
2613	74.38013
2614	82.02007
2615	97.45189
2616	110.8115
2617	112.2268
2618	102.4534
2619	91.99647
2620	75.70184
2621	41.0262
2622	13.60062
2623	9.379371
2624	26.77322
2625	46.49014
2626	56.21846
2627	76.31498
2628	109.3877
2629	111.2314
2630	100.9277
2631	93.63781
2632	96.85635
2633	94.30071
2634	88.46107
2635	90.18839
2636	104.5392
2637	92.94134
2638	87.87578
2639	100.1193
2640	111.1942
2641	110.5006
2642	107.2711
2643	103.4813
2644	86.31367
2645	57.64342
2646	36.36789
2647	35.06686
2648	41.34317
2649	29.85198
2650	20.26018
2651	35.89427
2652	60.57133
2653	80.90996
2654	88.45463
2655	84.6244
2656	75.46148
2657	57.01527
2658	28.4976
2659	-1.953619
2660	-2.741716
2661	26.58642
2662	65.71019
2663	86.29577
2664	79.50793
2665	69.69183
2666	56.63669
2667	15.47771
2668	-2.924149
2669	16.78879
2670	57.69959
2671	82.95879
2672	72.99197
2673	60.13914
2674	63.77187
2675	55.90351
2676	43.82554
2677	38.68948
2678	47.27559
2679	61.81345
2680	50.90853
2681	53.96722
2682	95.14285
2683	131.2942
2684	138.351
2685	114.783
2686	80.33546
2687	54.52065
2688	32.42052
2689	25.88295
2690	37.66833
2691	52.78982
2692	65.6796
2693	59.65898
2694	36.50049
2695	28.18166
2696	33.69897
2697	49.27421
2698	62.58538
2699	62.40729
2700	73.28917
2701	87.94062
2702	91.42754
2703	84.30882
2704	73.77851
2705	75.23122
2706	83.28316
2707	58.6658
2708	51.7001
2709	68.40217
2710	86.5125
2711	76.42854
2712	66.9198
2713	57.47176
2714	42.39107
2715	20.5344
2716	16.07897
2717	22.46466
2718	33.36884
2719	59.10653
2720	70.93136
2721	71.27103
2722	77.40199
2723	102.0485
2724	116.0952
2725	111.9263
2726	108.0291
2727	130.6528
2728	122.0746
2729	106.9855
2730	112.6091
2731	136.4486
2732	128.0614
2733	117.9549
2734	121.2864
2735	125.1975
2736	114.5403
2737	118.3326
2738	136.6268
2739	143.7064
2740	122.1496
2741	117.5284
2742	116.9206
2743	93.36
2744	75.79838
2745	62.81212
2746	51.60528
2747	44.04111
2748	52.51124
2749	72.58762
2750	84.78297
2751	82.60792
2752	84.71956
2753	65.01041
2754	50.4381
2755	59.52256
2756	79.27693
2757	77.01896
2758	86.37394
2759	113.9939
2760	134.4321
2761	134.1931
2762	147.3735
2763	156.2191
2764	131.4034
2765	97.36513
2766	86.5682
2767	106.5163
2768	134.6881
2769	139.9496
2770	149.823
2771	147.7201
2772	132.3233
2773	123.5447
2774	112.4695
2775	103.4561
2776	96.54798
2777	87.86862
2778	69.36779
2779	69.22311
2780	75.75653
2781	69.52323
2782	62.0192
2783	28.86504
2784	9.201813
2785	13.60555
2786	1.748351
2787	2.991623
2788	16.03766
2789	39.58567
2790	68.69659
2791	88.05917
2792	110.0067
2793	121.5037
2794	106.0303
2795	68.20809
2796	38.29418
2797	14.93935
2798	-2.975939
2799	-2.900384
2800	35.2909
2801	80.97849
2802	98.57468
2803	87.47629
2804	104.7459
2805	88.14523
2806	59.48266
2807	53.76912
2808	65.82321
2809	71.07806
2810	62.18513
2811	58.37091
2812	70.87683
2813	30.107
2814	15.17153
2815	14.5349
2816	7.203971
2817	27.19251
2818	57.3249
2819	67.28255
2820	43.42467
2821	6.403066
2822	-5.561773
2823	-1.108935
2824	0.8856795
2825	4.991572
2826	51.70613
2827	72.50587
2828	81.89593
2829	87.69932
2830	83.89448
2831	92.62319
2832	71.25676
2833	51.39474
2834	56.93396
2835	47.34265
2836	34.54871
2837	30.68213
2838	34.14771
2839	38.1792
2840	60.52462
2841	69.15763
2842	65.98344
2843	61.17599
2844	55.59021
2845	65.75724
2846	64.94641
2847	67.78606
2848	91.96778
2849	96.52316
2850	75.531
2851	56.90395
2852	53.58578
2853	48.51589
2854	46.53602
2855	53.64151
2856	75.14736
2857	95.07648
2858	80.96463
2859	72.05052
2860	83.44134
2861	100.5246
2862	100.6317
2863	96.79536
2864	100.2832
2865	96.92715
2866	94.26759
2867	117.376
2868	151.911
2869	167.4332
2870	170.7704
2871	173.7109
2872	169.6311
2873	169.9346
2874	176.9839
2875	175.8533
2876	155.4373
2877	130.4875
2878	104.5591
2879	94.56202
2880	103.7748
2881	118.4192
2882	124.6929
2883	145.8734
2884	161.7872
2885	162.6359
2886	164.1386
2887	181.6721
2888	187.3322
2889	190.5425
2890	200.0235
2891	207.5981
2892	219.7756
2893	215.7664
2894	204.8284
2895	189.9615
2896	155.8972
2897	146.2484
2898	146.8604
2899	154.9006
2900	167.2708
2901	170.2961
2902	162.4014
2903	137.2127
2904	131.238
2905	164.2327
2906	193.3329
2907	208.5009
2908	213.3847
2909	189.9357
2910	133.9251
2911	92.23335
2912	92.15806
2913	117.8789
2914	150.7073
2915	176.7621
2916	182.9752
2917	185.0459
2918	178.2899
2919	164.0784
2920	151.9235
2921	152.8979
2922	154.4664
2923	157.8208
2924	166.1885
2925	174.06
2926	166.3696
2927	158.682
2928	156.9551
2929	156.522
2930	156.1913
2931	165.8707
2932	147.4604
2933	135.0004
2934	149.5727
2935	182.2909
2936	205.7586
2937	204.1356
2938	194.591
2939	168.9905
2940	131.316
2941	116.7012
2942	124.4098
2943	134.475
2944	150.1415
2945	166.0996
2946	165.6397
2947	176.5112
2948	167.4689
2949	147.9622
2950	119.5512
2951	88.85739
2952	116.5412
2953	124.6583
2954	133.4651
2955	140.3775
2956	123.5768
2957	100.5353
2958	63.33055
2959	61.31652
2960	81.60378
2961	84.56852
2962	74.43537
2963	68.50906
2964	61.18865
2965	37.10502
2966	6.944612
2967	1.647724
2968	5.554381
2969	6.218089
2970	24.90513
2971	59.50681
2972	80.89796
2973	81.2757
2974	83.80632
2975	77.86068
2976	62.17452
2977	45.24775
2978	34.75166
2979	25.23214
2980	25.38023
2981	50.9585
2982	85.38451
2983	93.99131
2984	95.02646
2985	92.28177
2986	87.9184
2987	78.70959
2988	72.16689
2989	86.63745
2990	69.37145
2991	58.5567
2992	57.21796
2993	57.04779
2994	58.36657
2995	52.22792
2996	57.89865
2997	44.92733
2998	24.06697
2999	21.5999
3000	22.76059
3001	60.98063
3002	88.89755
3003	102.9554
3004	98.21218
3005	68.13603
3006	57.82325
3007	59.23025
3008	74.64565
3009	77.39642
3010	68.6712
3011	88.16569
3012	79.70452
3013	82.18841
3014	90.22511
3015	86.38943
3016	62.5672
3017	30.97926
3018	31.4065
3019	34.03109
3020	37.08073
3021	36.63842
3022	21.61217
3023	9.479612
3024	-1.466869
3025	1.161473
3026	41.21936
3027	101.5786
3028	125.7766
3029	119.0631
3030	104.6109
3031	71.82895
3032	38.64368
3033	32.10266
3034	46.67989
3035	50.54305
3036	52.63045
3037	54.77203
3038	54.63945
3039	54.30926
3040	61.7735
3041	64.4069
3042	74.79686
3043	88.91235
3044	88.68932
3045	85.07333
3046	120.9135
3047	133.6893
3048	120.0518
3049	93.47177
3050	83.01381
3051	92.42384
3052	84.68185
3053	82.43289
3054	89.68987
3055	82.16956
3056	61.63091
3057	49.5502
3058	43.05634
3059	41.88232
3060	27.73112
3061	34.10542
3062	50.65186
3063	56.9432
3064	77.25605
3065	68.42684
3066	79.32594
3067	94.72511
3068	107.2088
3069	107.4541
3070	78.1871
3071	60.66109
3072	47.00735
3073	69.54497
3074	100.511
3075	104.6822
3076	92.00158
3077	64.51661
3078	33.86733
3079	13.74861
3080	17.26389
3081	40.12043
3082	59.55094
3083	60.14209
3084	74.74281
3085	85.79481
3086	85.87881
3087	74.39044
3088	56.43433
3089	38.18251
3090	20.30972
3091	61.45444
3092	95.12876
3093	122.145
3094	148.8292
3095	134.8024
3096	104.1178
3097	62.49049
3098	82.10946
3099	103.9482
3100	115.9294
3101	141.9094
3102	122.5817
3103	95.57746
3104	84.02682
3105	94.7328
3106	90.69182
3107	71.79024
3108	77.67295
3109	78.69683
3110	69.36047
3111	84.59531
3112	93.94831
3113	73.44355
3114	50.94797
3115	61.6975
3116	76.25459
3117	65.49052
3118	38.3061
3119	18.13253
3120	5.79116
3121	2.083738
3122	33.11499
3123	51.2221
3124	52.60472
3125	57.30085
3126	58.90034
3127	36.61179
3128	13.97979
3129	49.47308
3130	57.021
3131	78.23915
3132	103.359
3133	103.4434
3134	70.11072
3135	39.65126
3136	51.2558
3137	20.30573
3138	13.35123
3139	21.60517
3140	28.87692
3141	35.01012
3142	52.3642
3143	85.3882
3144	65.04478
3145	51.66061
3146	46.66951
3147	46.63007
3148	56.65186
3149	73.00741
3150	75.54917
3151	68.12423
3152	48.46251
3153	44.28928
3154	54.28551
3155	58.09849
3156	48.90401
3157	42.54405
3158	58.26047
3159	49.4738
3160	62.07884
3161	67.9754
3162	43.48502
3163	16.33744
3164	13.42923
3165	24.01621
3166	36.88379
3167	47.25478
3168	43.39737
3169	21.4479
3170	0.007213116
3171	2.414668
3172	18.14936
3173	34.78965
3174	47.27296
3175	57.86872
3176	70.80896
3177	88.88713
3178	103.7296
3179	94.25292
3180	52.70814
3181	34.41845
3182	28.58589
3183	59.10609
3184	104.8518
3185	120.7163
3186	97.50982
3187	67.31105
3188	75.05173
3189	63.89764
3190	68.40162
3191	78.79621
3192	67.37865
3193	41.49824
3194	41.90242
3195	68.96268
3196	37.32889
3197	28.58404
3198	20.31603
3199	25.66483
3200	42.75906
