RamanShift	Intensity
190	3382.443
191	3354.517
192	3303.901
193	3248.554
194	3188.456
195	3136.868
196	3090.343
197	3055.883
198	3024.879
199	2975.68
200	2930.161
201	2879.829
202	2838.132
203	2791.02
204	2740.208
205	2693.437
206	2639.752
207	2595.784
208	2545.756
209	2506.632
210	2477.231
211	2461.849
212	2456.346
213	2441.845
214	2425.367
215	2399.902
216	2367.286
217	2322.475
218	2264.025
219	2208.377
220	2155.526
221	2119.605
222	2078.397
223	2044.615
224	2013.687
225	1987.162
226	1960.32
227	1912.214
228	1861.626
229	1809.707
230	1767.724
231	1718.758
232	1660.522
233	1610.29
234	1559.457
235	1527.083
236	1494.833
237	1472.119
238	1448.178
239	1419.806
240	1388.779
241	1340.212
242	1296.517
243	1263.513
244	1249.281
245	1231.3
246	1202.775
247	1171.519
248	1131.296
249	1096.563
250	1067.326
251	1049.046
252	1019.883
253	975.1366
254	933.2427
255	896.6537
256	877.1497
257	863.4313
258	860.2813
259	848.9465
260	824.8928
261	799.7736
262	778.4961
263	762.8135
264	745.3292
265	728.5774
266	701.5977
267	665.2903
268	629.3192
269	598.5883
270	573.8
271	542.3998
272	510.9622
273	465.2974
274	411.6004
275	362.6181
276	327.0142
277	308.8744
278	284.144
279	274.8283
280	282.1754
281	306.3414
282	323.8787
283	318.7596
284	301.8101
285	287.5177
286	269.6266
287	242.0978
288	208.4536
289	170.5586
290	131.7076
291	104.2042
292	89.13316
293	91.27821
294	89.93011
295	90.08998
296	91.29231
297	93.12028
298	99.92255
299	113.6821
300	129.1931
301	143.0108
302	149.7142
303	149.0792
304	139.5586
305	126.2768
306	116.6062
307	101.1608
308	66.47409
309	32.13154
310	13.85002
311	18.72466
312	25.60544
313	24.97512
314	26.28241
315	32.38601
316	40.31365
317	47.49414
318	50.97093
319	50.06168
320	43.96244
321	34.96296
322	24.81234
323	19.95892
324	27.45891
325	40.94217
326	40.52997
327	25.72003
328	19.33668
329	32.57627
330	51.31641
331	61.62036
332	66.51727
333	73.15911
334	79.37611
335	87.061
336	95.75031
337	108.4035
338	130.7229
339	145.5148
340	136.2664
341	114.789
342	118.7064
343	151.5267
344	182.6306
345	195.0297
346	200.6745
347	215.674
348	227.0882
349	235.1351
350	235.8116
351	233.0739
352	227.5753
353	217.3999
354	202.1973
355	190.0786
356	188.1993
357	194.044
358	191.8916
359	183.0853
360	181.3038
361	192.3223
362	201.4326
363	196.9527
364	184.2175
365	170.4004
366	158.7528
367	153.1548
368	155.7233
369	156.1572
370	148.0791
371	136.9541
372	125.0602
373	115.3442
374	105.9879
375	101.4221
376	103.9601
377	114.1066
378	118.2561
379	104.2238
380	87.7822
381	86.00761
382	95.11147
383	102.4552
384	106.5451
385	108.8204
386	108.7989
387	105.1443
388	95.89787
389	90.06615
390	99.90981
391	116.7615
392	118.704
393	102.4773
394	88.32561
395	85.56586
396	88.90425
397	92.59882
398	99.66795
399	107.5407
400	117.3524
401	134.4351
402	156.1828
403	179.2219
404	200.4936
405	218.0134
406	240.9223
407	256.2435
408	264.9714
409	262.6135
410	257.4882
411	251.3555
412	244.9072
413	239.7854
414	239.4092
415	246.5083
416	255.2984
417	256.3354
418	249.3346
419	241.438
420	234.3459
421	226.2939
422	216.8537
423	208.5929
424	199.3988
425	193.4042
426	188.0194
427	185.4026
428	182.2331
429	178.8538
430	175.2264
431	171.0576
432	169.1098
433	168.766
434	173.3696
435	185.0968
436	199.6857
437	207.3902
438	203.9828
439	194.6667
440	183.441
441	168.6067
442	148.746
443	130.9941
444	113.2318
445	104.1486
446	101.6199
447	109.2258
448	128.1918
449	155.8567
450	180.4845
451	189.3592
452	190.5847
453	207.4735
454	227.0069
455	234.248
456	227.7004
457	227.5183
458	240.8589
459	261.7221
460	288.0022
461	309.4039
462	327.2674
463	327.3639
464	306.908
465	270.4222
466	244.9452
467	241.9395
468	240.7434
469	226.4518
470	222.2697
471	236.8338
472	270.3595
473	316.7861
474	364.4712
475	404.1067
476	423.3799
477	433.0316
478	436.7213
479	439.1645
480	454.4055
481	472.5069
482	491.0083
483	504.3683
484	515.9304
485	520.6826
486	519.4559
487	512.1943
488	502.1443
489	494.3871
490	485.3723
491	470.2251
492	455.2806
493	441.6429
494	433.7041
495	426.2474
496	420.86
497	416.0581
498	411.148
499	405.1456
500	392.711
501	386.6282
502	396.5764
503	417.691
504	436.8501
505	448.6956
506	454.1747
507	450.7552
508	441.0363
509	430.1286
510	413.8659
511	390.7923
512	365.9548
513	338.3262
514	317.8532
515	301.7494
516	298.2614
517	310.3943
518	337.3246
519	359.3125
520	360.1931
521	351.1799
522	349.7024
523	348.162
524	344.979
525	339.8835
526	330.0462
527	318.372
528	309.8389
529	308.464
530	319.8563
531	345.8403
532	378.2529
533	409.3926
534	434.9078
535	467.8234
536	495.8
537	518.7666
538	528.5859
539	524.3334
540	506.0363
541	477.4985
542	445.661
543	415.1934
544	380.2217
545	357.9373
546	343.6857
547	345.0972
548	349.7527
549	355.2774
550	352.8525
551	338.0156
552	320.0883
553	306.0467
554	289.907
555	263.5415
556	232.2498
557	188.2688
558	147.5868
559	121.5446
560	119.4253
561	121.1278
562	121.7093
563	124.3645
564	126.291
565	132.741
566	145.8841
567	162.9291
568	185.0176
569	200.0912
570	199.3102
571	181.3323
572	164.8416
573	156.2576
574	149.7826
575	144.526
576	135.1933
577	113.8237
578	94.08504
579	82.2524
580	83.32871
581	91.80426
582	106.5578
583	116.5784
584	118.6088
585	120.0319
586	122.5694
587	126.3162
588	132.888
589	138.2682
590	141.8957
591	140.0685
592	133.4262
593	121.671
594	105.9223
595	91.23202
596	82.90044
597	84.43999
598	88.40392
599	90.87263
600	90.31149
601	83.45618
602	76.99988
603	78.84545
604	82.95792
605	79.38158
606	70.89854
607	62.47699
608	57.45978
609	59.04913
610	68.3708
611	75.75069
612	75.81846
613	75.1925
614	78.03597
615	84.3079
616	95.39397
617	108.7669
618	123.3851
619	134.1295
620	139.6655
621	138.7789
622	143.4936
623	154.2903
624	156.7759
625	144.7256
626	130.5706
627	126.3127
628	123.1048
629	110.5886
630	96.81449
631	86.23071
632	81.34607
633	76.75443
634	75.13849
635	75.85989
636	78.91608
637	80.24349
638	77.97368
639	83.549
640	103.9446
641	124.0012
642	128.9384
643	129.3313
644	147.1629
645	169.4672
646	186.2894
647	191.909
648	192.9699
649	186.5226
650	170.312
651	145.6513
652	122.8226
653	109.0217
654	94.37341
655	64.19151
656	41.94763
657	38.05791
658	47.98497
659	43.90163
660	38.77293
661	51.37694
662	80.01195
663	109.9909
664	133.3341
665	145.7186
666	143.7989
667	143.502
668	156.5422
669	177.0422
670	204.7567
671	225.1423
672	230.6109
673	223.6882
674	227.0139
675	234.15
676	240.4723
677	240.1746
678	223.2786
679	190.8008
680	161.4943
681	146.9934
682	140.952
683	140.5049
684	138.1922
685	121.3926
686	103.0749
687	91.76944
688	89.93899
689	89.16457
690	94.40795
691	107.6003
692	123.0682
693	125.5935
694	113.6163
695	110.7499
696	122.9207
697	124.7329
698	105.4628
699	82.68042
700	70.52239
701	63.89024
702	52.93087
703	47.70258
704	49.70678
705	56.59484
706	53.92218
707	49.81412
708	62.1997
709	89.9593
710	119.6851
711	143.8637
712	168.7477
713	191.6457
714	206.169
715	210.9731
716	204.9088
717	195.0091
718	178.5822
719	157.7428
720	138.2994
721	120.337
722	111.157
723	104.0242
724	105.5549
725	116.3345
726	132.3303
727	138.0605
728	131.1786
729	133.5895
730	151.1749
731	159.7105
732	148.596
733	132.8926
734	124.5741
735	117.9975
736	107.065
737	102.1868
738	108.6979
739	121.3942
740	126.133
741	126.8939
742	138.028
743	150.7582
744	148.0583
745	127.5853
746	105.1396
747	87.99918
748	76.80822
749	75.63788
750	89.14577
751	115.6866
752	146.6545
753	172.8504
754	191.9366
755	213.1065
756	221.8642
757	225.5049
758	213.6878
759	185.2351
760	154.9669
761	141.7398
762	155.3972
763	188.4647
764	234.5674
765	278.0981
766	307.9692
767	352.1422
768	408.8556
769	464.6214
770	507.3042
771	541.6672
772	577.1157
773	604.4033
774	634.8651
775	654.8041
776	674.1578
777	679.4262
778	675.5084
779	663.4726
780	660.0774
781	660.3578
782	652.268
783	638.8621
784	630.7059
785	625.8267
786	604.7806
787	566.723
788	518.8222
789	472.0393
790	427.6006
791	393.7173
792	374.386
793	367.6527
794	370.2926
795	369.002
796	371.5441
797	379.4754
798	382.3989
799	369.5832
800	348.6079
801	333.1408
802	320.4499
803	299.3357
804	278.3148
805	259.1364
806	249.1075
807	243.4309
808	246.2192
809	254.4901
810	267.8261
811	285.2941
812	304.5708
813	333.452
814	370.2296
815	403.4774
816	425.3973
817	436.5621
818	441.9377
819	440.2611
820	439.7977
821	437.2239
822	433.5592
823	432.6267
824	436.6723
825	447.3311
826	464.0398
827	483.3034
828	505.2989
829	522.877
830	538.6348
831	545.4383
832	545.7112
833	539.7265
834	536.3586
835	541.5995
836	565.8787
837	609.9867
838	659.4977
839	704.7652
840	761.0048
841	828.0278
842	900.379
843	974.2374
844	1039.848
845	1097.398
846	1142.442
847	1194.5
848	1230.219
849	1259.279
850	1255.728
851	1228.282
852	1172.555
853	1104.304
854	1035.598
855	961.7711
856	900.6606
857	829.3408
858	775.499
859	735.4756
860	717.7762
861	684.3351
862	645.6358
863	604.3556
864	572.0616
865	537.565
866	510.3334
867	486.528
868	472.5015
869	468.2633
870	472.7944
871	468.1756
872	446.4368
873	418.781
874	391.3573
875	358.9019
876	321.5262
877	292.1272
878	277.42
879	274.1241
880	270.4619
881	272.1031
882	276.1216
883	275.608
884	259.2642
885	244.1213
886	249.5353
887	264.391
888	265.8641
889	266.9807
890	284.8782
891	309.1686
892	330.4871
893	341.9916
894	346.3885
895	345.3669
896	355.9073
897	376.7819
898	405.5238
899	433.8839
900	457.3988
901	467.6516
902	472.7568
903	469.7122
904	462.613
905	451.0652
906	427.8119
907	396.078
908	366.158
909	346.1332
910	325.957
911	305.2118
912	279.9514
913	250.7254
914	221.7997
915	197.1945
916	180.7422
917	173.2902
918	169.2247
919	160.9255
920	156.6369
921	157.93
922	163.5853
923	170.9559
924	174.5511
925	170.1662
926	159.1648
927	145.3779
928	130.914
929	117.5465
930	109.8031
931	104.4303
932	106.6189
933	112.7096
934	122.4939
935	130.171
936	136.8934
937	149.7077
938	157.4684
939	154.1015
940	137.9415
941	115.0756
942	90.84941
943	69.19479
944	56.9211
945	44.02609
946	38.08962
947	34.83543
948	39.44916
949	53.03365
950	70.4268
951	81.48013
952	83.52521
953	85.07188
954	85.94955
955	91.03123
956	98.75961
957	104.8928
958	109.2152
959	119.6079
960	134.0015
961	149.1915
962	162.3018
963	178.7486
964	194.251
965	202.3531
966	200.7648
967	203.0799
968	208.8877
969	204.79
970	189.4921
971	172.3969
972	159.6248
973	149.2746
974	144.0108
975	139.9941
976	136.0626
977	124.2953
978	105.1557
979	96.60146
980	104.9243
981	114.2635
982	118.5534
983	127.1384
984	141.1433
985	157.1801
986	170.7925
987	176.5136
988	170.4461
989	154.8532
990	134.121
991	109.8079
992	88.02729
993	70.63872
994	61.11889
995	62.3662
996	74.62199
997	101.8577
998	140.1831
999	184.7973
1000	225.6319
1001	256.1809
1002	269.2291
1003	257.2228
1004	222.7635
1005	182.2168
1006	152.1144
1007	119.5179
1008	83.06622
1009	51.94189
1010	31.14319
1011	24.35342
1012	30.63096
1013	43.68805
1014	55.21905
1015	57.21584
1016	44.58721
1017	38.66835
1018	50.55576
1019	56.77039
1020	46.46504
1021	39.36101
1022	44.76024
1023	51.39573
1024	53.94232
1025	62.17653
1026	78.8045
1027	99.33558
1028	118.2936
1029	135.6471
1030	148.9212
1031	151.998
1032	143.4001
1033	131.4239
1034	123.4398
1035	115.7365
1036	109.3809
1037	110.9381
1038	122.9176
1039	148.2203
1040	183.7442
1041	224.564
1042	259.8075
1043	289.7075
1044	310.1919
1045	332.2494
1046	357.641
1047	384.8413
1048	407.9407
1049	425.2223
1050	431.8251
1051	426.1572
1052	409.3268
1053	391.3747
1054	378.7546
1055	359.1176
1056	337.6796
1057	332.0357
1058	346.8675
1059	359.154
1060	363.215
1061	372.1987
1062	383.9991
1063	387.213
1064	379.9408
1065	374.3763
1066	371.683
1067	364.849
1068	354.6822
1069	342.2614
1070	330.2946
1071	312.749
1072	299.022
1073	300.9187
1074	320.5473
1075	342.6035
1076	364.1436
1077	389.7315
1078	414.9867
1079	451.74
1080	484.2925
1081	503.8193
1082	499.241
1083	480.0629
1084	453.9585
1085	446.8746
1086	450.8458
1087	440.9354
1088	423.205
1089	397.3751
1090	382.1907
1091	394.0627
1092	418.7272
1093	425.193
1094	416.3289
1095	399.4314
1096	380.597
1097	371.2014
1098	363.8038
1099	343.3211
1100	326.609
1101	320.6672
1102	330.4136
1103	353.8224
1104	375.0122
1105	378.315
1106	373.3332
1107	370.1944
1108	358.8116
1109	337.6013
1110	319.4702
1111	313.0999
1112	319.7683
1113	337.5104
1114	347.5333
1115	339.5079
1116	327.7398
1117	318.8508
1118	312.6137
1119	310.6052
1120	305.9984
1121	298.9004
1122	296.3909
1123	300.517
1124	308.4498
1125	316.8694
1126	317.2309
1127	311.5261
1128	317.5575
1129	332.9391
1130	347.326
1131	354.4325
1132	353.839
1133	341.9379
1134	322.9468
1135	300.4542
1136	279.2044
1137	264.6624
1138	249.4691
1139	242.9818
1140	242.637
1141	246.119
1142	243.1439
1143	234.1389
1144	217.2407
1145	202.9614
1146	199.7603
1147	195.512
1148	179.4632
1149	160.04
1150	143.2949
1151	126.2728
1152	109.7601
1153	97.75246
1154	92.86594
1155	89.33731
1156	85.78059
1157	85.74373
1158	89.42036
1159	92.34978
1160	92.3162
1161	89.85262
1162	83.66055
1163	68.59889
1164	51.66331
1165	48.71841
1166	56.48702
1167	50.62413
1168	38.90228
1169	34.89863
1170	42.35515
1171	61.36652
1172	83.99007
1173	100.7012
1174	105.8886
1175	103.1792
1176	94.20818
1177	90.52162
1178	80.18868
1179	56.20155
1180	35.88595
1181	30.40136
1182	30.69958
1183	30.85024
1184	36.46744
1185	47.19624
1186	61.0366
1187	74.1469
1188	80.13939
1189	75.98867
1190	70.11806
1191	64.99751
1192	61.07205
1193	62.32466
1194	69.4465
1195	87.22008
1196	120.1135
1197	160.9999
1198	206.2551
1199	235.7324
1200	250.2111
1201	243.6962
1202	236.9305
1203	226.6712
1204	220.5778
1205	212.2764
1206	197.2476
1207	193.0985
1208	208.0092
1209	233.7865
1210	261.5341
1211	283.1709
1212	291.1138
1213	294.6164
1214	295.1619
1215	300.5027
1216	308.2144
1217	309.2701
1218	303.5519
1219	298.459
1220	296.275
1221	300.3326
1222	305.6567
1223	299.7845
1224	296.1238
1225	309.6215
1226	331.9913
1227	352.4072
1228	378.5091
1229	413.8092
1230	437.0444
1231	437.3377
1232	437.3402
1233	446.9897
1234	446.5249
1235	435.5869
1236	444.259
1237	473.2271
1238	496.8844
1239	509.7417
1240	527.8076
1241	538.7368
1242	529.8305
1243	513.4196
1244	522.3691
1245	538.7735
1246	538.9303
1247	532.5809
1248	528.9384
1249	529.2128
1250	535.6609
1251	542.1628
1252	544.2144
1253	544.5678
1254	546.5754
1255	570.6335
1256	613.0302
1257	639.9465
1258	636.6218
1259	612.5632
1260	575.4707
1261	553.3292
1262	542.2813
1263	516.1151
1264	492.9955
1265	475.945
1266	473.1132
1267	479.8966
1268	491.8035
1269	500.2128
1270	502.3888
1271	496.5676
1272	493.3788
1273	496.152
1274	493.3017
1275	486.1108
1276	489.9965
1277	502.1647
1278	503.4478
1279	501.2534
1280	518.2009
1281	538.8259
1282	544.2473
1283	537.7438
1284	529.9264
1285	522.2874
1286	519.2489
1287	526.3929
1288	544.0456
1289	549.9083
1290	537.3638
1291	536.5774
1292	551.5599
1293	563.4054
1294	568.9293
1295	572.3641
1296	577.3613
1297	597.0963
1298	620.6661
1299	640.4353
1300	645.121
1301	633.9262
1302	612.5025
1303	592.2791
1304	566.2193
1305	537.228
1306	517.4893
1307	516.7443
1308	530.3127
1309	553.4911
1310	570.8924
1311	574.0463
1312	566.1011
1313	546.6127
1314	527.7474
1315	502.7188
1316	462.7106
1317	435.216
1318	436.0728
1319	446.4757
1320	451.6349
1321	449.9732
1322	440.6338
1323	437.3928
1324	440.6154
1325	436.6143
1326	426.2349
1327	411.8823
1328	405.063
1329	417.5217
1330	438.2478
1331	449.8513
1332	450.1102
1333	438.4944
1334	429.9287
1335	433.0922
1336	426.7628
1337	410.4822
1338	403.4045
1339	412.2724
1340	434.7739
1341	460.7906
1342	473.2045
1343	473.4223
1344	475.9114
1345	477.2448
1346	480.753
1347	484.1298
1348	486.4624
1349	481.2848
1350	468.7897
1351	459.917
1352	458.4231
1353	455.9712
1354	454.8159
1355	458.017
1356	459.6038
1357	450.7405
1358	435.92
1359	421.3178
1360	407.9197
1361	397.9746
1362	396.5966
1363	405.9369
1364	426.3014
1365	449.5843
1366	463.4793
1367	459.0518
1368	444.6729
1369	417.6488
1370	377.4095
1371	350.7318
1372	355.405
1373	374.7113
1374	390.3056
1375	402.4741
1376	405.8483
1377	400.9919
1378	389.8354
1379	386.751
1380	382.5748
1381	350.3238
1382	314.3952
1383	300.1039
1384	307.1452
1385	325.2272
1386	343.3925
1387	351.3536
1388	369.8102
1389	396.9966
1390	415.0192
1391	415.8106
1392	408.6726
1393	396.5289
1394	392.1464
1395	390.9986
1396	387.5927
1397	377.1826
1398	357.2865
1399	349.2243
1400	359.1822
1401	351.7365
1402	330.8365
1403	332.7283
1404	352.4225
1405	365.1155
1406	368.5578
1407	361.8553
1408	355.6182
1409	361.1043
1410	374.4282
1411	392.1852
1412	407.4716
1413	417.6601
1414	436.239
1415	453.986
1416	460.7304
1417	456.1883
1418	451.4867
1419	447.9605
1420	450.0656
1421	458.7994
1422	472.1957
1423	483.1081
1424	489.4037
1425	503.4453
1426	524.4987
1427	554.6926
1428	584.8722
1429	610.977
1430	628.8698
1431	641.7944
1432	648.2
1433	649.7627
1434	647.8532
1435	644.6987
1436	646.7398
1437	651.7534
1438	649.8011
1439	652.5915
1440	672.8347
1441	695.7582
1442	708.492
1443	720.074
1444	729.6038
1445	725.0716
1446	710.3103
1447	712.5337
1448	723.5745
1449	719.7748
1450	714.4514
1451	720.1094
1452	726.8735
1453	730.228
1454	756.2372
1455	798.1727
1456	802.6171
1457	772.095
1458	763.6273
1459	760.9506
1460	740.9343
1461	710.9937
1462	677.5346
1463	625.4006
1464	563.6476
1465	526.6678
1466	522.8228
1467	499.1792
1468	471.5893
1469	450.0822
1470	442.8925
1471	446.4793
1472	446.4059
1473	430.9396
1474	403.5664
1475	372.917
1476	353.0992
1477	348.5619
1478	342.4582
1479	331.9095
1480	304.8141
1481	280.6588
1482	272.7892
1483	258.1289
1484	233.6241
1485	215.3792
1486	205.02
1487	181.9787
1488	162.9446
1489	159.3948
1490	155.5596
1491	136.1664
1492	123.0738
1493	124.1913
1494	126.5278
1495	124.2029
1496	106.9788
1497	80.18198
1498	51.67278
1499	36.94977
1500	44.02528
1501	56.96878
1502	66.80053
1503	89.63178
1504	115.7999
1505	127.8265
1506	126.1476
1507	131.7842
1508	129.2866
1509	113.9719
1510	100.3084
1511	96.13123
1512	87.96898
1513	79.29595
1514	79.95625
1515	82.33755
1516	68.02696
1517	61.09472
1518	76.90384
1519	89.20587
1520	88.71928
1521	91.78102
1522	96.89474
1523	98.27908
1524	98.41574
1525	104.3852
1526	102.9964
1527	88.05916
1528	74.93893
1529	70.66724
1530	66.81449
1531	69.10299
1532	82.15065
1533	103.6251
1534	126.7956
1535	150.0187
1536	169.3227
1537	182.2487
1538	182.2081
1539	167.8624
1540	145.4978
1541	130.8148
1542	123.5412
1543	118.7172
1544	127.8729
1545	149.2841
1546	156.7464
1547	150.429
1548	161.5485
1549	174.618
1550	170.6226
1551	164.2949
1552	166.762
1553	164.9931
1554	159.037
1555	168.3535
1556	176.448
1557	146.3031
1558	107.4004
1559	92.81085
1560	87.3987
1561	86.04596
1562	99.62067
1563	127.5336
1564	161.5604
1565	187.3041
1566	198.8338
1567	192.1696
1568	175.3459
1569	151.8889
1570	130.5116
1571	107.1706
1572	97.82221
1573	111.544
1574	131.8119
1575	132.9063
1576	125.6164
1577	115.6655
1578	108.2796
1579	106.7677
1580	105.6101
1581	110.3003
1582	121.3127
1583	146.1734
1584	183.4596
1585	211.9342
1586	220.9888
1587	230.6967
1588	229.7064
1589	216.0415
1590	197.5217
1591	185.6373
1592	181.5265
1593	187.0323
1594	193.1618
1595	200.2903
1596	211.7803
1597	217.6345
1598	212.551
1599	202.8153
1600	192.5592
1601	177.1679
1602	164.3562
1603	162.4355
1604	163.3766
1605	153.518
1606	147.3403
1607	149.153
1608	144.0762
1609	135.8474
1610	135.8207
1611	141.5632
1612	146.1031
1613	156.4583
1614	172.6236
1615	188.8227
1616	197.5319
1617	196.3213
1618	190.4068
1619	193.5281
1620	198.4486
1621	200.017
1622	186.315
1623	159.4699
1624	131.428
1625	112.0737
1626	101.7615
1627	100.5645
1628	104.8514
1629	116.1448
1630	132.6464
1631	156.5964
1632	169.6682
1633	159.2713
1634	144.5494
1635	140.794
1636	142.8264
1637	151.9501
1638	168.4482
1639	182.8156
1640	185.67
1641	184.5202
1642	183.8734
1643	175.0408
1644	159.9481
1645	143.9429
1646	132.1177
1647	126.1577
1648	121.6198
1649	118.5736
1650	132.8602
1651	159.5356
1652	177.2003
1653	190.995
1654	209.8416
1655	216.2837
1656	205.7489
1657	196.3974
1658	189.7448
1659	177.5528
1660	175.7328
1661	192.3846
1662	200.5803
1663	191.7119
1664	183.3105
1665	178.0418
1666	177.0849
1667	174.7194
1668	166.7042
1669	164.4832
1670	172.754
1671	192.4718
1672	206.8714
1673	196.6722
1674	182.869
1675	181.0615
1676	182.7687
1677	184.2371
1678	176.3987
1679	162.4442
1680	147.4697
1681	142.8623
1682	151.7552
1683	153.8194
1684	155.272
1685	175.6809
1686	196.5283
1687	202.8385
1688	206.7332
1689	206.9385
1690	193.5806
1691	175.8084
1692	168.9393
1693	169.0204
1694	172.6992
1695	180.4716
1696	189.8707
1697	197.2306
1698	205.2466
1699	218.3544
1700	230.5596
1701	239.2341
1702	253.0749
1703	267.4691
1704	281.544
1705	288.6091
1706	287.3094
1707	282.4126
1708	274.127
1709	259.2451
1710	241.0535
1711	223.1024
1712	216.4583
1713	224.5263
1714	231.7852
1715	236.773
1716	243.5508
1717	247.509
1718	246.523
1719	236.0304
1720	218.8894
1721	204.5506
1722	199.4992
1723	204.3604
1724	212.2506
1725	216.2879
1726	215.1995
1727	207.3245
1728	194.985
1729	182.6007
1730	175.5136
1731	172.5037
1732	173.6219
1733	173.5196
1734	171.52
1735	166.7661
1736	151.7869
1737	130.4812
1738	124.6185
1739	133.8498
1740	140.3415
1741	155.486
1742	178.2714
1743	194.7974
1744	195.4687
1745	186.4831
1746	168.2693
1747	150.3671
1748	139.4159
1749	140.8087
1750	149.6029
1751	158.4303
1752	155.2331
1753	148.738
1754	143.3883
1755	135.8517
1756	128.5746
1757	124.4045
1758	112.0651
1759	87.81672
1760	74.36388
1761	73.93774
1762	63.13444
1763	55.4472
1764	58.01718
1765	70.37254
1766	90.61844
1767	119.6068
1768	141.3078
1769	144.0625
1770	143.1285
1771	145.01
1772	140.3612
1773	130.1303
1774	117.4331
1775	115.4522
1776	128.1559
1777	134.4589
1778	131.8739
1779	130.1705
1780	119.5965
1781	98.47106
1782	72.02728
1783	53.16119
1784	47.7257
1785	64.04291
1786	94.86533
1787	127.8395
1788	154.067
1789	189.6764
1790	211.7907
1791	209.6558
1792	202.0117
1793	196.8325
1794	188.8653
1795	173.6799
1796	144.8923
1797	127.2617
1798	130.6776
1799	132.9493
1800	138.0208
1801	149.3389
1802	160.3458
1803	165.4963
1804	164.9327
1805	154.2436
1806	132.9425
1807	107.1906
1808	85.31895
1809	71.18163
1810	69.11166
1811	66.7945
1812	78.75767
1813	105.1847
1814	122.9556
1815	128.6523
1816	144.8896
1817	148.3562
1818	133.4115
1819	145.6054
1820	179.6354
1821	193.4557
1822	200.4846
1823	212.8299
1824	212.7003
1825	198.1659
1826	181.5135
1827	164.8782
1828	151.6404
1829	148.4792
1830	156.3869
1831	163.8988
1832	170.5611
1833	174.1031
1834	170.9639
1835	163.1345
1836	159.9306
1837	159.026
1838	157.451
1839	155.0352
1840	152.9924
1841	154.3749
1842	154.2122
1843	148.1269
1844	137.1776
1845	127.2143
1846	126.2004
1847	130.422
1848	133.2227
1849	152.3239
1850	177.2776
1851	181.713
1852	169.9216
1853	154.9725
1854	149.3478
1855	158.6839
1856	178.6154
1857	192.7539
1858	187.861
1859	190.1263
1860	196.4847
1861	190.8106
1862	179.0102
1863	168.0352
1864	159.3179
1865	156.8004
1866	160.731
1867	157.1283
1868	141.5327
1869	151.9761
1870	179.1241
1871	191.2589
1872	197.1119
1873	199.147
1874	190.7529
1875	174.3632
1876	158.3273
1877	139.1893
1878	122.2631
1879	122.7001
1880	136.9123
1881	146.4314
1882	169.1323
1883	199.4977
1884	210.6642
1885	206.4779
1886	204.5633
1887	197.527
1888	188.4075
1889	184.6271
1890	178.7028
1891	163.8871
1892	161.498
1893	169.4456
1894	162.8757
1895	151.173
1896	143.3609
1897	148.7305
1898	162.1082
1899	165.7522
1900	164.8204
1901	162.5533
1902	159.6962
1903	159.1432
1904	164.0446
1905	163.8484
1906	155.8782
1907	150.3617
1908	147.1933
1909	144.1512
1910	157.1763
1911	181.8581
1912	194.5553
1913	199.3806
1914	204.2349
1915	203.5507
1916	194.8923
1917	178.3811
1918	164.1261
1919	159.1323
1920	150.1268
1921	142.393
1922	141.7532
1923	142.9383
1924	142.584
1925	137.2626
1926	141.2738
1927	166.1793
1928	195.5848
1929	213.4922
1930	216.5249
1931	211.1263
1932	210.1553
1933	205.8073
1934	188.1919
1935	143.0542
1936	111.1938
1937	116.2317
1938	129.9892
1939	147.5705
1940	156.446
1941	166.9499
1942	178.2067
1943	191.3358
1944	189.7965
1945	168.6852
1946	147.9215
1947	138.6184
1948	139.5775
1949	150.7934
1950	164.4618
1951	172.7368
1952	174.798
1953	176.292
1954	169.242
1955	154.5353
1956	138.8485
1957	125.6983
1958	119.1368
1959	126.2851
1960	144.7948
1961	163.6
1962	180.3426
1963	189.0048
1964	189.1934
1965	179.6587
1966	167.2556
1967	150.9168
1968	133.9762
1969	110.8839
1970	102.9193
1971	114.7511
1972	109.674
1973	104.6261
1974	125.8095
1975	142.1142
1976	144.7737
1977	152.4688
1978	165.5542
1979	183.2982
1980	192.9279
1981	182.3843
1982	148.6282
1983	131.1514
1984	143.9344
1985	148.4452
1986	154.1843
1987	166.7501
1988	192.1258
1989	213.4286
1990	209.9868
1991	190.4921
1992	170.391
1993	169.6814
1994	177.4213
1995	174.689
1996	170.6415
1997	164.7312
1998	151.3996
1999	148.401
2000	159.4197
2001	158.3728
2002	154.4034
2003	159.6885
2004	149.5821
2005	129.4994
2006	123.0998
2007	130.978
2008	146.9726
2009	155.1148
2010	154.7295
2011	151.7686
2012	149.9833
2013	144.893
2014	122.5269
2015	107.9949
2016	115.1085
2017	137.6804
2018	147.5583
2019	119.886
2020	106.2944
2021	115.7037
2022	129.0097
2023	139.2277
2024	141.9728
2025	154.8979
2026	166.1237
2027	164.4551
2028	142.295
2029	113.8575
2030	106.0999
2031	101.4996
2032	97.58472
2033	108.4749
2034	124.8697
2035	135.9317
2036	163.3371
2037	184.6622
2038	172.0459
2039	149.9126
2040	132.6593
2041	119.2881
2042	114.2429
2043	115.8004
2044	114.7299
2045	126.6355
2046	163.8912
2047	181.7758
2048	172.7696
2049	167.586
2050	170.9418
2051	182.8503
2052	183.2311
2053	171.8512
2054	154.5488
2055	129.0058
2056	100.8551
2057	72.32994
2058	57.84314
2059	62.87096
2060	72.83024
2061	93.79253
2062	119.8497
2063	142.7721
2064	158.3771
2065	170.8712
2066	167.4593
2067	150.3848
2068	135.2512
2069	125.2964
2070	123.4175
2071	122.5368
2072	124.3298
2073	126.2513
2074	123.7488
2075	117.6226
2076	111.089
2077	104.0476
2078	105.6197
2079	127.6217
2080	145.1008
2081	143.2968
2082	129.2854
2083	113.8747
2084	111.4738
2085	126.8224
2086	152.9702
2087	173.85
2088	199.5734
2089	217.4088
2090	217.0022
2091	193.1892
2092	160.3507
2093	145.5993
2094	139.2724
2095	131.5463
2096	134.7
2097	140.5707
2098	138.1315
2099	155.5532
2100	209.3683
2101	304.7442
2102	418.2721
2103	507.8318
2104	574.5591
2105	586.0651
2106	539.1251
2107	426.3335
2108	296.5053
2109	211.2022
2110	139.8662
2111	100.0059
2112	75.44378
2113	80.29529
2114	105.5411
2115	120.2739
2116	136.4668
2117	154.2995
2118	180.0677
2119	186.047
2120	164.6937
2121	144.5647
2122	131.0913
2123	128.0323
2124	133.6667
2125	149.3684
2126	170.2519
2127	181.6193
2128	179.4477
2129	177.2193
2130	173.5011
2131	167.2952
2132	149.4959
2133	132.5828
2134	125.9962
2135	126.6443
2136	132.9603
2137	136.919
2138	129.7122
2139	116.5063
2140	108.6301
2141	104.1466
2142	102.2992
2143	97.19518
2144	101.9365
2145	114.516
2146	122.7727
2147	116.2252
2148	101.2222
2149	109.4438
2150	125.5232
2151	134.2805
2152	139.2003
2153	140.0013
2154	139.5761
2155	134.2808
2156	125.1368
2157	116.4774
2158	126.4929
2159	146.2688
2160	152.1029
2161	151.5144
2162	146.9737
2163	143.5567
2164	140.345
2165	135.6588
2166	122.4188
2167	113.4853
2168	115.4964
2169	120.9185
2170	124.3489
2171	123.0681
2172	133.2368
2173	146.3833
2174	152.0852
2175	151.9122
2176	149.3868
2177	151.0831
2178	149.7086
2179	141.5961
2180	125.6259
2181	127.8753
2182	146.6321
2183	159.2351
2184	172.3951
2185	184.5463
2186	197.8155
2187	197.415
2188	178.6102
2189	143.5087
2190	121.6664
2191	126.8226
2192	131.5087
2193	133.0057
2194	129.7871
2195	141.9995
2196	151.3666
2197	143.5972
2198	132.2064
2199	123.3536
2200	122.8357
2201	123.1295
2202	125.3344
2203	129.6406
2204	138.977
2205	146.4243
2206	144.5795
2207	142.6382
2208	140.9615
2209	137.2816
2210	123.2166
2211	109.2805
2212	114.7017
2213	131.3699
2214	150.4189
2215	163.6493
2216	172.7515
2217	178.4896
2218	188.959
2219	183.347
2220	160.6157
2221	139.866
2222	127.1851
2223	123.6492
2224	111.3966
2225	105.5803
2226	114.0725
2227	136.1597
2228	163.5804
2229	183.7355
2230	197.5194
2231	203.1877
2232	202.347
2233	187.2441
2234	168.7603
2235	159.6922
2236	159.0167
2237	160.6979
2238	155.6208
2239	145.0724
2240	130.5759
2241	115.7649
2242	97.07612
2243	90.50526
2244	102.4002
2245	110.5365
2246	126.2244
2247	155.2784
2248	172.8275
2249	175.1073
2250	170.387
2251	163.8554
2252	156.308
2253	148.3497
2254	129.6038
2255	117.7924
2256	125.9087
2257	121.5994
2258	114.3371
2259	117.9482
2260	121.1534
2261	124.6562
2262	129.3716
2263	130.9758
2264	131.211
2265	133.7532
2266	136.7379
2267	141.0128
2268	145.9135
2269	137.5691
2270	129.1592
2271	136.404
2272	136.2386
2273	139.1636
2274	155.8561
2275	178.0155
2276	189.2208
2277	178.9449
2278	159.1252
2279	143.189
2280	142.438
2281	138.2874
2282	142.0969
2283	160.4184
2284	184.7769
2285	199.4353
2286	194.5669
2287	185.3346
2288	169.6331
2289	151.0197
2290	132.6065
2291	125.5844
2292	134.217
2293	152.6068
2294	164.6291
2295	160.5907
2296	164.0346
2297	157.5116
2298	140.5828
2299	142.364
2300	157.6059
2301	174.2068
2302	186.8456
2303	181.02
2304	159.9386
2305	147.8592
2306	135.5513
2307	127.9273
2308	142.4329
2309	153.5754
2310	148.265
2311	133.9675
2312	127.9222
2313	131.3068
2314	125.0011
2315	130.7066
2316	145.5421
2317	151.4871
2318	142.7635
2319	127.1737
2320	123.1642
2321	141.2112
2322	169.6952
2323	184.3067
2324	188.6706
2325	187.864
2326	191.4875
2327	187.6144
2328	168.625
2329	138.8452
2330	134.8205
2331	130.1593
2332	101.7208
2333	69.04754
2334	59.8328
2335	82.88571
2336	109.1023
2337	121.166
2338	119.2399
2339	145.2325
2340	149.5204
2341	128.228
2342	125.7746
2343	132.0011
2344	147.584
2345	173.3889
2346	194.5028
2347	202.6736
2348	201.7399
2349	195.6575
2350	187.2681
2351	180.7259
2352	175.7106
2353	173.8954
2354	172.5492
2355	159.6242
2356	142.3374
2357	129.6554
2358	120.0499
2359	114.2132
2360	116.5088
2361	140.6218
2362	151.8985
2363	142.2953
2364	139.3906
2365	140.1809
2366	144.5553
2367	150.0984
2368	160.6545
2369	179.8653
2370	204.2654
2371	197.6442
2372	183.4639
2373	190.9221
2374	188.2435
2375	185.7449
2376	186.7921
2377	174.0813
2378	162.149
2379	155.1488
2380	138.6098
2381	133.0012
2382	140.6558
2383	147.9588
2384	153.6008
2385	153.2423
2386	146.2742
2387	137.6758
2388	128.3088
2389	118.3508
2390	103.0533
2391	106.7655
2392	132.758
2393	141.8797
2394	155.2091
2395	171.7128
2396	171.2512
2397	165.9459
2398	153.1194
2399	126.7502
2400	130.5685
2401	154.6947
2402	165.9168
2403	163.2897
2404	149.9493
2405	133.6539
2406	109.2098
2407	76.16329
2408	52.36678
2409	61.247
2410	93.16267
2411	125.4048
2412	133.3293
2413	128.476
2414	114.1841
2415	100.2616
2416	88.08382
2417	94.14238
2418	120.5381
2419	150.2732
2420	165.9578
2421	160.6663
2422	147.6018
2423	137.9461
2424	125.4924
2425	96.1544
2426	95.00295
2427	107.2783
2428	107.8137
2429	110.2128
2430	123.6871
2431	142.2435
2432	141.4
2433	119.5456
2434	89.80516
2435	73.21873
2436	73.49725
2437	92.93021
2438	119.7876
2439	137.9096
2440	138.3732
2441	124.3396
2442	110.9154
2443	93.63815
2444	89.57128
2445	120.893
2446	143.4613
2447	155.1661
2448	168.6965
2449	165.8608
2450	150.97
2451	136.2836
2452	126.6754
2453	114.6867
2454	107.3958
2455	120.9187
2456	150.8823
2457	176.172
2458	176.2077
2459	167.0997
2460	140.4402
2461	103.6738
2462	68.17066
2463	59.80309
2464	76.31421
2465	87.64178
2466	106.8756
2467	129.3308
2468	146.0802
2469	153.7985
2470	162.1793
2471	174.7394
2472	182.2186
2473	156.384
2474	123.5479
2475	130.4512
2476	128.6114
2477	126.3709
2478	132.7734
2479	145.2538
2480	147.4536
2481	131.4165
2482	105.5653
2483	96.44129
2484	95.77308
2485	85.413
2486	83.78437
2487	89.90896
2488	91.59938
2489	69.08898
2490	69.03118
2491	88.51295
2492	96.75092
2493	105.1013
2494	106.8387
2495	106.199
2496	131.3418
2497	126.2367
2498	99.39861
2499	104.1544
2500	100.212
2501	89.97498
2502	84.38758
2503	90.89082
2504	113.4796
2505	133.9527
2506	126.4963
2507	140.0742
2508	148.0764
2509	125.6975
2510	123.176
2511	127.3096
2512	125.1848
2513	109.8901
2514	107.3504
2515	123.21
2516	145.4486
2517	145.4226
2518	146.9369
2519	160.2175
2520	169.3533
2521	148.5957
2522	116.6528
2523	108.0387
2524	110.898
2525	115.7504
2526	114.6818
2527	112.6081
2528	120.9852
2529	123.7337
2530	108.9593
2531	117.852
2532	134.0037
2533	142.6686
2534	143.147
2535	124.0965
2536	109.3525
2537	119.2398
2538	115.5328
2539	116.5725
2540	115.0183
2541	86.09725
2542	72.71263
2543	82.96696
2544	103.5077
2545	114.6447
2546	122.2007
2547	127.8876
2548	131.0213
2549	120.9567
2550	111.16
2551	111.796
2552	108.6295
2553	80.43398
2554	52.33122
2555	64.56512
2556	74.28531
2557	102.0835
2558	138.683
2559	139.3105
2560	137.0491
2561	128.9757
2562	109.7054
2563	103.393
2564	96.03474
2565	86.33241
2566	85.97345
2567	60.62836
2568	43.54517
2569	54.617
2570	39.20067
2571	35.17337
2572	54.57154
2573	85.2848
2574	110.2223
2575	114.9451
2576	105.5453
2577	110.0312
2578	99.10326
2579	77.28547
2580	66.11764
2581	85.30113
2582	105.9395
2583	111.5739
2584	109.1055
2585	106.1713
2586	92.80086
2587	67.8348
2588	43.92027
2589	34.96515
2590	38.74932
2591	48.04151
2592	80.79125
2593	114.2947
2594	130.8
2595	131.1561
2596	136.487
2597	132.4979
2598	116.9933
2599	107.9364
2600	115.2385
2601	128.493
2602	129.7153
2603	116.657
2604	113.1048
2605	120.0121
2606	121.6869
2607	129.6413
2608	136.8873
2609	134.1855
2610	117.1785
2611	101.599
2612	87.68739
2613	76.918
2614	78.13557
2615	90.74732
2616	110.5461
2617	125.591
2618	121.8931
2619	107.8178
2620	84.10098
2621	47.18391
2622	17.61957
2623	9.649473
2624	25.99258
2625	55.82569
2626	71.45228
2627	86.04449
2628	106.124
2629	102.3494
2630	101.3763
2631	105.0755
2632	107.8374
2633	114.8352
2634	115.9287
2635	114.5607
2636	117.7279
2637	104.0255
2638	103.3169
2639	119.0918
2640	125.981
2641	120.4844
2642	109.4527
2643	95.19717
2644	68.20592
2645	46.94397
2646	42.1179
2647	51.7672
2648	61.94215
2649	46.51072
2650	25.47043
2651	28.24953
2652	47.21589
2653	69.52178
2654	81.40488
2655	78.70565
2656	74.12167
2657	61.00204
2658	40.09266
2659	20.46314
2660	25.70422
2661	44.9108
2662	66.72231
2663	84.80038
2664	89.83063
2665	92.83967
2666	92.69811
2667	76.84802
2668	66.40569
2669	72.56734
2670	92.22362
2671	107.6783
2672	88.51223
2673	67.3078
2674	68.63657
2675	71.38087
2676	58.14575
2677	44.49456
2678	46.36823
2679	56.56961
2680	49.25096
2681	61.13891
2682	110.7653
2683	153.3423
2684	157.8375
2685	123.6498
2686	75.27549
2687	34.0258
2688	11.11312
2689	23.1347
2690	60.91543
2691	87.38241
2692	105.4244
2693	100.4537
2694	72.06181
2695	42.35057
2696	45.88229
2697	73.12648
2698	92.54873
2699	92.19152
2700	91.35511
2701	95.04225
2702	99.87527
2703	97.94629
2704	106.6352
2705	123.595
2706	131.2025
2707	111.7613
2708	92.95406
2709	89.80489
2710	98.66388
2711	95.55978
2712	87.77464
2713	82.23978
2714	77.90122
2715	60.036
2716	51.04551
2717	48.76675
2718	52.20134
2719	70.7914
2720	68.36327
2721	60.2794
2722	72.95807
2723	113.2037
2724	142.5235
2725	150.8389
2726	150.6696
2727	160.1934
2728	127.5814
2729	89.47028
2730	90.14748
2731	132.6196
2732	151.9847
2733	164.3065
2734	172.8462
2735	166.1012
2736	140.3027
2737	132.3596
2738	145.6634
2739	154.4028
2740	156.6926
2741	153.1895
2742	135.3757
2743	101.1031
2744	66.76808
2745	47.64812
2746	38.24577
2747	37.681
2748	71.16955
2749	92.537
2750	98.02119
2751	95.18702
2752	86.59335
2753	72.53931
2754	68.97424
2755	80.82493
2756	93.88303
2757	88.3078
2758	88.39017
2759	102.9428
2760	117.5455
2761	117.9602
2762	134.4539
2763	146.5043
2764	127.5199
2765	110.1305
2766	96.24619
2767	101.621
2768	121.2571
2769	123.9823
2770	144.1643
2771	162.4866
2772	163.2013
2773	152.2735
2774	140.4194
2775	128.2951
2776	114.3402
2777	98.74126
2778	87.31063
2779	88.80605
2780	92.84296
2781	91.96601
2782	103.0091
2783	87.10807
2784	72.26145
2785	72.75205
2786	62.53311
2787	50.93637
2788	50.37224
2789	65.94402
2790	90.18881
2791	111.4019
2792	136.1826
2793	150.8125
2794	139.0171
2795	102.1248
2796	66.59943
2797	45.14091
2798	42.84091
2799	59.72
2800	108.8681
2801	147.0476
2802	147.616
2803	123.9687
2804	115.3086
2805	89.2702
2806	64.90108
2807	65.95607
2808	87.06218
2809	94.24773
2810	95.26583
2811	102.4141
2812	110.5476
2813	76.8651
2814	61.36414
2815	58.83241
2816	55.56762
2817	76.43205
2818	122.4841
2819	144.4123
2820	120.3088
2821	80.83503
2822	68.07325
2823	74.00263
2824	74.23969
2825	73.1029
2826	122.4328
2827	137.8007
2828	136.681
2829	138.4819
2830	142.4333
2831	149.0071
2832	120.9983
2833	100.2528
2834	113.9769
2835	111.8988
2836	117.2314
2837	133.9961
2838	149.4982
2839	153.4958
2840	175.1522
2841	179.2807
2842	173.3786
2843	171.4406
2844	171.6198
2845	188.5455
2846	198.329
2847	212.1083
2848	239.8874
2849	237.4821
2850	223.481
2851	212.6949
2852	206.786
2853	194.6938
2854	188.0675
2855	189.1066
2856	208.9731
2857	234.8523
2858	225.9817
2859	211.1306
2860	197.8056
2861	188.857
2862	182.9452
2863	185.4435
2864	210.4802
2865	230.0824
2866	240.6874
2867	267.0713
2868	299.7544
2869	311.9551
2870	316.1661
2871	331.545
2872	353.3774
2873	360.1792
2874	369.4874
2875	365.3716
2876	331.9609
2877	295.7248
2878	259.8958
2879	249.4252
2880	261.7168
2881	273.3724
2882	278.5986
2883	291.2028
2884	313.5408
2885	331.5219
2886	331.6562
2887	340.5697
2888	341.0999
2889	338.1228
2890	341.1036
2891	352.3117
2892	372.337
2893	371.3434
2894	361.3543
2895	349.1168
2896	316.0302
2897	311.2548
2898	308.3
2899	309.0928
2900	316.6024
2901	311.682
2902	305.967
2903	289.2077
2904	283.3889
2905	302.4572
2906	318.475
2907	333.0425
2908	345.6152
2909	335.9696
2910	300.8752
2911	283.5452
2912	288.4891
2913	302.2391
2914	316.4087
2915	325.5138
2916	317.8422
2917	315.3564
2918	310.8584
2919	308.2253
2920	309.6948
2921	301.9398
2922	308.9932
2923	301.7901
2924	293.3724
2925	301.1062
2926	292.6194
2927	290.0123
2928	282.7922
2929	278.4334
2930	283.3748
2931	281.3925
2932	272.4903
2933	280.2747
2934	305.9578
2935	334.7622
2936	357.8244
2937	366.7144
2938	347.3518
2939	308.7789
2940	272.0739
2941	250.4711
2942	240.1277
2943	235.2437
2944	257.2327
2945	286.5797
2946	275.8505
2947	292.4122
2948	295.825
2949	283.148
2950	246.6496
2951	201.0605
2952	232.9655
2953	236.2759
2954	240.5053
2955	258.114
2956	265.4682
2957	256.0522
2958	209.2484
2959	208.2346
2960	236.3721
2961	232.156
2962	205.3461
2963	178.6257
2964	156.8863
2965	127.2328
2966	105.208
2967	123.6944
2968	139.0898
2969	151.0885
2970	164.2532
2971	182.7719
2972	196.1462
2973	182.0382
2974	182.4614
2975	171.0239
2976	151.3366
2977	139.2166
2978	127.9224
2979	120.0545
2980	116.5965
2981	142.1635
2982	180.5031
2983	186.0185
2984	185.8925
2985	192.4528
2986	194.2353
2987	186.2802
2988	177.5487
2989	175.7275
2990	163.4515
2991	153.7865
2992	154.4669
2993	161.8456
2994	165.0558
2995	159.3758
2996	146.6236
2997	120.9603
2998	86.22333
2999	56.02996
3000	46.35869
3001	89.31809
3002	133.8131
3003	163.4554
3004	169.5663
3005	147.477
3006	129.0382
3007	118.7151
3008	127.9347
3009	130.6124
3010	126.8984
3011	156.913
3012	150.4343
3013	145.0703
3014	143.9411
3015	139.8794
3016	123.3261
3017	92.46913
3018	103.896
3019	102.6847
3020	95.4238
3021	91.54665
3022	79.80344
3023	80.38182
3024	65.7401
3025	65.1002
3026	89.28589
3027	121.7332
3028	137.6567
3029	125.2816
3030	110.024
3031	85.83369
3032	63.53409
3033	62.67346
3034	81.09535
3035	84.25965
3036	99.27224
3037	109.6336
3038	116.6728
3039	128.4154
3040	129.7857
3041	123.4237
3042	108.1428
3043	111.9783
3044	116.3425
3045	110.7347
3046	150.8358
3047	170.6866
3048	160.3118
3049	131.5594
3050	119.9758
3051	132.1079
3052	122.1529
3053	117.5862
3054	129.1864
3055	124.7415
3056	97.32344
3057	75.59972
3058	72.98338
3059	70.20379
3060	55.24596
3061	65.88597
3062	80.66031
3063	76.12816
3064	97.9098
3065	93.7853
3066	106.0015
3067	121.8424
3068	130.765
3069	122.061
3070	90.70728
3071	92.59955
3072	88.34908
3073	111.0632
3074	143.1868
3075	146.035
3076	120.4069
3077	92.81046
3078	61.99638
3079	45.17036
3080	42.989
3081	57.55105
3082	82.48501
3083	86.64822
3084	114.1384
3085	124.1944
3086	119.4899
3087	108.9767
3088	92.18488
3089	70.03386
3090	54.63737
3091	93.43845
3092	120.65
3093	136.2139
3094	163.1422
3095	176.9524
3096	166.0314
3097	141.459
3098	164.1612
3099	172.0973
3100	156.0088
3101	157.0443
3102	142.0064
3103	120.4598
3104	108.3132
3105	120.0266
3106	110.8996
3107	83.2989
3108	94.8251
3109	107.6665
3110	114.7064
3111	139.021
3112	150.265
3113	131.249
3114	109.1141
3115	110.1269
3116	111.2368
3117	105.5545
3118	82.60906
3119	68.17918
3120	67.19294
3121	67.23929
3122	85.03204
3123	105.3891
3124	112.3516
3125	114.3287
3126	116.9748
3127	95.89877
3128	56.40733
3129	76.79366
3130	94.44164
3131	127.5951
3132	160.9812
3133	168.2075
3134	136.769
3135	96.16291
3136	96.74604
3137	75.53319
3138	86.72045
3139	96.70065
3140	98.57146
3141	101.3272
3142	105.4243
3143	124.8398
3144	110.0063
3145	104.5159
3146	93.24105
3147	88.53871
3148	96.79974
3149	106.8926
3150	134.339
3151	152.824
3152	152.3657
3153	151.9206
3154	147.5272
3155	124.2916
3156	94.27496
3157	89.2454
3158	102.207
3159	90.05678
3160	105.7256
3161	120.1049
3162	109.8664
3163	99.85749
3164	106.8556
3165	119.7753
3166	129.9893
3167	146.0898
3168	143.5751
3169	116.2365
3170	80.53178
3171	55.84275
3172	53.73115
3173	69.5772
3174	97.41437
3175	124.4172
3176	140.1983
3177	147.2499
3178	155.0549
3179	159.6178
3180	139.4427
3181	139.9717
3182	149.5865
3183	165.6838
3184	176.9362
3185	171.3347
3186	144.9508
3187	104.2481
3188	89.04076
3189	81.14361
3190	86.36429
3191	105.3888
3192	114.1697
3193	106.1394
3194	110.4337
3195	122.9332
3196	90.78806
3197	73.41069
3198	65.59483
3199	73.61497
3200	94.78707
