RamanShift	Intensity
190	3245.534
191	3216.925
192	3175.642
193	3133.114
194	3082.645
195	3035.205
196	2988.163
197	2948.372
198	2914.815
199	2874.004
200	2842.793
201	2808.455
202	2779.824
203	2741.376
204	2691.893
205	2641.934
206	2587.157
207	2542.192
208	2494.281
209	2458.917
210	2429.242
211	2406.64
212	2393.233
213	2374.62
214	2358.846
215	2338.33
216	2313.99
217	2274.634
218	2215.437
219	2156.223
220	2101.678
221	2064.584
222	2024.69
223	1992.378
224	1953.018
225	1903.003
226	1855.006
227	1799.977
228	1757.976
229	1720.562
230	1696.549
231	1661.516
232	1605.87
233	1556.976
234	1521.151
235	1506.242
236	1487.717
237	1469.757
238	1441.772
239	1400.147
240	1356.494
241	1308.8
242	1272.514
243	1240.457
244	1220.827
245	1195.404
246	1159.141
247	1125.112
248	1091.248
249	1068.184
250	1046.911
251	1031.638
252	1004.945
253	962.9374
254	922.1292
255	886.7728
256	865.189
257	843.7319
258	829.1516
259	810.4352
260	786.2546
261	761.1317
262	733.6444
263	709.1835
264	681.9274
265	655.3872
266	615.8882
267	565.8285
268	520.1718
269	484.8204
270	463.7334
271	437.6602
272	417.5729
273	393.524
274	368.6716
275	342.7152
276	314.1124
277	293.3212
278	275.1535
279	270.3024
280	272.7823
281	282.2234
282	284.4746
283	270.4126
284	249.8239
285	232.2442
286	216.5722
287	195.4596
288	171.6595
289	141.1586
290	104.0303
291	76.9463
292	66.36035
293	73.69572
294	77.47787
295	81.36597
296	85.6972
297	89.34208
298	95.99586
299	109.0275
300	120.2489
301	124.0742
302	118.5501
303	110.155
304	100.0097
305	88.26671
306	78.17013
307	65.17855
308	37.33757
309	12.74909
310	6.654495
311	22.05543
312	34.48666
313	31.7038
314	25.77539
315	25.53032
316	26.45398
317	25.81362
318	23.40107
319	17.89515
320	10.06129
321	4.371789
322	1.729337
323	9.811476
324	36.41348
325	70.17215
326	90.11767
327	89.92459
328	86.81683
329	90.07479
330	89.54949
331	82.568
332	71.25478
333	58.27835
334	47.68123
335	40.6837
336	39.84535
337	49.32408
338	71.69332
339	93.36004
340	95.29795
341	85.82294
342	94.30891
343	121.8024
344	147.3885
345	159.7434
346	163.7891
347	171.0366
348	171.2135
349	165.9283
350	154.6211
351	141.6598
352	130.3926
353	119.3697
354	105.8368
355	101.7031
356	114.7238
357	136.7291
358	142.6647
359	131.982
360	132.7844
361	156.7221
362	178.5436
363	179.5833
364	169.3853
365	166.1346
366	167.3888
367	171.5544
368	176.9589
369	173.8251
370	156.3801
371	135.9051
372	121.9081
373	116.4133
374	114.6733
375	117.1646
376	114.5952
377	104.1111
378	89.16865
379	70.47385
380	56.65352
381	51.77686
382	57.56285
383	61.5867
384	64.99599
385	74.62447
386	91.59521
387	104.5487
388	103.7097
389	99.32502
390	112.623
391	131.0895
392	132.3789
393	114.1812
394	105.2161
395	118.6501
396	137.137
397	147.9662
398	150.6584
399	147.078
400	138.2853
401	133.381
402	136.5153
403	149.7052
404	174.0196
405	200.9082
406	224.6469
407	242.6501
408	265.4997
409	283.1529
410	293.7984
411	292.7941
412	285.7489
413	277.9091
414	267.6712
415	254.7617
416	244.9705
417	238.9834
418	239.9166
419	242.7226
420	247.4197
421	257.8474
422	275.0378
423	293.3042
424	312.507
425	324.6431
426	336.2045
427	336.7829
428	320.413
429	287.339
430	248.3295
431	215.2698
432	190.1258
433	163.8999
434	155.21
435	161.0078
436	184.6053
437	209.8581
438	230.3207
439	253.8858
440	281.0201
441	298.4975
442	305.7953
443	299.7812
444	295.1913
445	288.5835
446	279.4966
447	269.347
448	260.9027
449	256.6145
450	250.3038
451	231.6163
452	218.8726
453	224.9151
454	248.1869
455	271.1473
456	290.7785
457	316.3926
458	348.3062
459	378.4234
460	407.3363
461	419.529
462	420.0392
463	400.3724
464	370.2461
465	336.471
466	311.6376
467	304.8729
468	305.314
469	303.4432
470	309.3129
471	318.4824
472	339.3242
473	381.253
474	430.6165
475	467.6954
476	480.7654
477	489.373
478	501.416
479	513.4459
480	533.231
481	550.1616
482	564.4627
483	568.6797
484	564.735
485	553.2175
486	547.5346
487	553.0748
488	558.94
489	559.2589
490	552.6855
491	535.4818
492	517.2089
493	510.8485
494	516.5344
495	517.9372
496	513.7803
497	511.8878
498	515.1422
499	515.4611
500	505.4008
501	495.1432
502	495.8574
503	503.3032
504	505.5723
505	502.5448
506	499.1729
507	496.5089
508	491.2298
509	482.4694
510	474.3641
511	472.4082
512	467.8307
513	445.757
514	415.8498
515	388.8774
516	375.0865
517	379.5684
518	404.009
519	427.9588
520	433.8242
521	430.9061
522	433.1055
523	432.8289
524	429.9669
525	424.6119
526	417.7556
527	411.8171
528	407.6626
529	407.1568
530	421.6376
531	457.1908
532	499.8614
533	541.1773
534	570.5762
535	601.1115
536	618.2821
537	626.1266
538	619.4391
539	602.221
540	578.029
541	550.8377
542	525.0975
543	503.5328
544	472.7282
545	454.3604
546	453.0964
547	469.9835
548	485.4982
549	491.9497
550	483.0787
551	455.4617
552	419.9281
553	385.0046
554	354.9498
555	325.3376
556	300.8
557	250.4655
558	209.3761
559	222.3487
560	291.3102
561	362.7863
562	407.3968
563	434.4832
564	447.842
565	443.561
566	442.8725
567	430.2038
568	407.6533
569	374.0934
570	323.7277
571	272.1936
572	246.6321
573	259.5779
574	276.438
575	278.5414
576	275.2537
577	267.9348
578	259.5682
579	254.2276
580	253.7413
581	257.7377
582	264.4393
583	265.3872
584	260.0005
585	257.3662
586	260.7878
587	266.8161
588	273.9171
589	279.5154
590	282.7137
591	281.1199
592	275.4799
593	268.104
594	266.1766
595	268.7862
596	265.0715
597	254.9713
598	252.2323
599	262.7736
600	274.0775
601	277.7685
602	272.8291
603	261.5916
604	243.3805
605	219.5638
606	198.4531
607	184.6793
608	183.8739
609	187.0868
610	193.2226
611	204.4282
612	219.3332
613	232.0067
614	238.5174
615	238.8793
616	238.6298
617	237.3857
618	242.142
619	248.8762
620	249.6552
621	245.0142
622	245.7365
623	253.4888
624	258.4746
625	256.2917
626	245.4405
627	225.8883
628	206.9352
629	195.7947
630	194.552
631	195.2334
632	198.28
633	195.1367
634	187.4219
635	182.8903
636	183.2686
637	180.4189
638	171.7587
639	166.2784
640	169.8662
641	174.5683
642	170.427
643	165.5602
644	166.8105
645	174.2475
646	186.7857
647	201.0218
648	211.498
649	213.8407
650	207.9434
651	194.2087
652	183.8324
653	184.7993
654	181.7745
655	160.7041
656	139.6065
657	131.8256
658	133.0013
659	123.9393
660	114.7743
661	114.5387
662	126.3148
663	145.7123
664	169.1382
665	186.826
666	193.0569
667	198.5511
668	210.3249
669	225.9627
670	250.0738
671	265.1155
672	261.495
673	244.1492
674	234.606
675	232.1727
676	235.5866
677	241.2955
678	233.8867
679	211.5133
680	189.1193
681	175.3469
682	168.363
683	168.9194
684	165.1033
685	143.7595
686	116.5499
687	90.27035
688	74.26099
689	64.67844
690	69.08118
691	81.62687
692	98.9709
693	106.4087
694	101.9504
695	108.3977
696	129.5262
697	136.9177
698	117.9093
699	94.43069
700	85.44848
701	82.7941
702	76.27535
703	73.43092
704	75.47898
705	78.78275
706	71.35783
707	60.20071
708	60.48022
709	73.84516
710	89.85177
711	105.0222
712	124.2499
713	145.6558
714	164.6724
715	178.7538
716	185.7782
717	190.315
718	186.4979
719	179.4123
720	165.4927
721	144.2616
722	123.2418
723	107.8497
724	101.799
725	94.04704
726	87.44022
727	78.74716
728	71.13057
729	73.9752
730	89.85611
731	100.6231
732	96.42576
733	92.53079
734	100.0917
735	108.1057
736	107.1359
737	105.5762
738	115.0037
739	126.6991
740	131.7123
741	130.7533
742	132.969
743	135.3172
744	132.5589
745	125.0649
746	120.1935
747	120.2221
748	120.5698
749	120.0572
750	125.5479
751	139.2301
752	152.6315
753	159.1266
754	162.1037
755	165.9364
756	174.7994
757	203.8541
758	229.5181
759	226.8048
760	205.4716
761	198.0162
762	208.8941
763	237.8711
764	278.0614
765	311.3784
766	329.0916
767	362.0583
768	412.3279
769	467.047
770	514.3973
771	550.1377
772	577.0367
773	590.4613
774	603.9199
775	610.6782
776	624.8058
777	630.5186
778	619.9579
779	601.7173
780	597.2813
781	599.6409
782	586.9949
783	565.5659
784	554.4532
785	552.7634
786	534.7656
787	498.4227
788	453.231
789	409.8306
790	366.7584
791	330.983
792	315.8419
793	324.2756
794	344.5637
795	358.737
796	369.7784
797	378.6846
798	378.4281
799	372.043
800	356.8928
801	338.8094
802	317.7008
803	287.8159
804	263.0688
805	250.658
806	258.3194
807	275.067
808	299.1514
809	324.0364
810	344.8437
811	373.1088
812	405.5433
813	433.643
814	450.5694
815	459.443
816	463.2997
817	460.3125
818	454.6242
819	447.5763
820	442.6774
821	442.6184
822	446.9687
823	457.8862
824	473.9615
825	492.066
826	509.9748
827	525.4858
828	548.0176
829	570.513
830	596.9304
831	616.4524
832	624.8214
833	620.3851
834	621.8849
835	633.8141
836	660.8719
837	702.2463
838	750.4747
839	797.2568
840	849.9145
841	905.5536
842	961.975
843	1018.342
844	1065.164
845	1103.549
846	1129.169
847	1156.691
848	1173.755
849	1191.178
850	1188.964
851	1169.393
852	1127.327
853	1069.909
854	1007.197
855	935.305
856	874.2998
857	813.298
858	773.2159
859	739.3212
860	719.8901
861	686.8654
862	649.9034
863	610.1373
864	579.6574
865	551.3791
866	533.3445
867	516.3045
868	503.8372
869	499.6916
870	504.8649
871	511.2772
872	513.5773
873	504.6749
874	481.1974
875	450.3658
876	420.0063
877	400.781
878	400.6816
879	403.7172
880	389.717
881	375.2505
882	369.1911
883	365.4251
884	354.4166
885	341.9712
886	327.4552
887	318.8292
888	313.6834
889	321.4275
890	344.2368
891	373.6232
892	396.1421
893	408.8533
894	427.9378
895	443.1171
896	452.545
897	451.7744
898	447.1331
899	439.597
900	436.528
901	437.5515
902	432.8188
903	422.933
904	415.8037
905	413.901
906	412.2219
907	409.083
908	398.716
909	380.6419
910	359.4898
911	339.9322
912	320.0682
913	301.6046
914	276.9897
915	244.7723
916	217.0173
917	200.4853
918	191.3967
919	184.5153
920	178.6488
921	167.8566
922	159.5108
923	155.3382
924	158.1052
925	167.8333
926	174.5614
927	166.9892
928	155.4465
929	152.1413
930	153.5448
931	155.7354
932	157.6208
933	154.2237
934	150.7102
935	152.0441
936	159.2516
937	176.1876
938	187.8421
939	177.9179
940	150.6101
941	120.6575
942	95.50894
943	78.54131
944	72.89613
945	58.24879
946	44.60994
947	36.47511
948	39.71645
949	53.2201
950	72.97356
951	88.29278
952	95.35128
953	99.92495
954	101.7726
955	111.1772
956	123.515
957	127.7852
958	123.9057
959	126.2068
960	135.871
961	149.5678
962	165.885
963	188.1619
964	210.2979
965	222.9711
966	220.2859
967	211.3048
968	196.5776
969	172.2272
970	145.0102
971	126.9713
972	124.8706
973	119.5779
974	108.2558
975	95.60721
976	84.57101
977	72.5707
978	61.36726
979	54.23039
980	54.604
981	67.51194
982	92.59824
983	122.5244
984	149.8963
985	169.0469
986	173.7785
987	164.8494
988	144.5128
989	117.7735
990	92.94724
991	69.40503
992	52.36489
993	49.53188
994	62.48653
995	77.36948
996	84.1463
997	100.2164
998	129.7569
999	164.322
1000	195.5613
1001	220.6604
1002	234.7553
1003	233.5036
1004	218.363
1005	194.5335
1006	170.4744
1007	140.1089
1008	105.5653
1009	74.65528
1010	53.35705
1011	42.82678
1012	42.1332
1013	51.2865
1014	65.62987
1015	80.06281
1016	88.70994
1017	101.441
1018	121.1267
1019	128.8212
1020	116.5162
1021	109.3645
1022	120.9944
1023	135.1334
1024	143.6429
1025	153.3192
1026	165.516
1027	186.8057
1028	216.8633
1029	242.2472
1030	253.9379
1031	250.6733
1032	234.3306
1033	225.5267
1034	236.8111
1035	253.1627
1036	266.8484
1037	277.8609
1038	284.1497
1039	303.5131
1040	339.7801
1041	375.5244
1042	397.6526
1043	415.3147
1044	428.3948
1045	435.2762
1046	437.2849
1047	449.7572
1048	474.5381
1049	492.8752
1050	496.0797
1051	493.9023
1052	489.8005
1053	491.8292
1054	501.5699
1055	506.6833
1056	504.0961
1057	504.0929
1058	509.7952
1059	524.4075
1060	544.09
1061	558.8194
1062	562.1754
1063	559.7755
1064	550.5872
1065	534.2499
1066	514.1662
1067	490.6143
1068	471.5413
1069	455.4086
1070	451.0582
1071	458.7434
1072	479.7758
1073	504.6678
1074	529.8267
1075	560.4483
1076	583.6104
1077	593.4584
1078	589.2836
1079	599.5189
1080	613.1227
1081	610.2523
1082	595.6511
1083	588.7988
1084	586.6257
1085	580.6666
1086	569.4099
1087	547.9525
1088	519.5289
1089	479.8127
1090	450.4843
1091	444.908
1092	450.4203
1093	425.426
1094	391.9862
1095	366.5699
1096	350.3078
1097	332.2136
1098	318.2114
1099	299.0527
1100	284.4707
1101	272.1506
1102	274.7849
1103	295.8966
1104	315.9871
1105	314.7563
1106	315.4537
1107	334.9029
1108	348.2463
1109	342.4328
1110	331.5618
1111	325.1302
1112	317.3438
1113	307.9142
1114	293.7354
1115	275.7047
1116	260.2364
1117	253.0073
1118	257.4584
1119	273.7294
1120	291.5274
1121	304.3234
1122	314.1329
1123	317.7147
1124	317.6686
1125	311.6576
1126	295.7997
1127	275.3907
1128	264.1594
1129	266.4148
1130	271.4991
1131	282.0737
1132	301.2623
1133	320.0071
1134	328.4529
1135	326.9415
1136	332.7632
1137	336.555
1138	330.8138
1139	321.6822
1140	322.462
1141	323.4723
1142	314.8942
1143	298.4488
1144	274.4483
1145	253.6935
1146	242.5747
1147	236.1415
1148	226.5271
1149	216.6874
1150	206.2446
1151	199.7456
1152	199.1084
1153	193.317
1154	178.2612
1155	159.8457
1156	144.2956
1157	136.175
1158	137.9461
1159	134.046
1160	123.9214
1161	119.1282
1162	119.8546
1163	111.6234
1164	97.04985
1165	86.4018
1166	80.93974
1167	71.06457
1168	64.41493
1169	67.00386
1170	78.86237
1171	93.90358
1172	107.3094
1173	118.1201
1174	117.9561
1175	107.2009
1176	89.04957
1177	73.11551
1178	57.09196
1179	39.18323
1180	30.06891
1181	33.20203
1182	41.70445
1183	48.4086
1184	52.26998
1185	51.40865
1186	52.54362
1187	56.37252
1188	51.89227
1189	39.63808
1190	35.01245
1191	40.91154
1192	47.75529
1193	53.97106
1194	57.49404
1195	61.44924
1196	75.78761
1197	96.50713
1198	120.7474
1199	136.6627
1200	141.0536
1201	133.8517
1202	128.4096
1203	124.7363
1204	126.7911
1205	130.2419
1206	129.9285
1207	136.1807
1208	152.9946
1209	176.5589
1210	201.5863
1211	226.9634
1212	245.7184
1213	249.6341
1214	238.2076
1215	239.2304
1216	253.8513
1217	268.0576
1218	276.5354
1219	277.6178
1220	272.9496
1221	276.4375
1222	282.3986
1223	282.9317
1224	281.8913
1225	283.6951
1226	291.2552
1227	305.856
1228	328.8767
1229	358.3334
1230	379.5224
1231	383.5486
1232	392.5005
1233	413.3647
1234	415.6575
1235	395.0475
1236	391.045
1237	409.659
1238	427.375
1239	440.5326
1240	456.497
1241	467.4543
1242	467.3533
1243	463.418
1244	480.6266
1245	496.6239
1246	486.3123
1247	470.6855
1248	472.3996
1249	484.416
1250	500.9741
1251	514.9073
1252	519.0411
1253	518.6049
1254	518.3393
1255	539.9485
1256	580.9535
1257	606.7798
1258	605.3074
1259	592.8651
1260	571.0403
1261	554.4406
1262	540.2579
1263	514.9487
1264	490.2559
1265	463.7288
1266	454.9706
1267	468.6403
1268	495.1106
1269	520.4467
1270	533.0528
1271	525.1526
1272	512.3522
1273	503.0645
1274	500.35
1275	508.0247
1276	524.5237
1277	545.2632
1278	558.8764
1279	571.0162
1280	610.5056
1281	646.7422
1282	651.6512
1283	632.573
1284	615.1975
1285	600.9172
1286	596.4327
1287	606.694
1288	630.5304
1289	656.0985
1290	676.3298
1291	713.3634
1292	760.7551
1293	800.3892
1294	824.7336
1295	861.2054
1296	897.662
1297	939.3881
1298	970.1529
1299	998.8976
1300	1008.539
1301	1005.154
1302	985.6453
1303	959.135
1304	917.2422
1305	865.7305
1306	820.8094
1307	798.5376
1308	784.5229
1309	780.4583
1310	771.4622
1311	756.2714
1312	727.2754
1313	696.1451
1314	673.4105
1315	653.5029
1316	618.901
1317	586.4658
1318	563.0419
1319	542.5992
1320	520.8171
1321	495.3409
1322	471.4681
1323	455.3758
1324	453.6454
1325	456.3982
1326	462.5276
1327	460.6211
1328	458.7749
1329	471.4755
1330	484.7878
1331	485.0475
1332	477.883
1333	469.7352
1334	463.8198
1335	463.3289
1336	458.0761
1337	448.2709
1338	441.6277
1339	445.3336
1340	466.7701
1341	496.5666
1342	515.4517
1343	522.9998
1344	530.5825
1345	536.308
1346	546.8768
1347	550.2812
1348	541.962
1349	523.0211
1350	498.9784
1351	477.0197
1352	464.1645
1353	450.5708
1354	442.0992
1355	434.9127
1356	434.9007
1357	442.2677
1358	445.8597
1359	433.1144
1360	418.4101
1361	412.7935
1362	415.0989
1363	424.9298
1364	438.6301
1365	449.9053
1366	455.083
1367	446.0764
1368	422.8142
1369	385.5956
1370	333.2782
1371	295.299
1372	288.1231
1373	301.6904
1374	319.7914
1375	344.0461
1376	365.7694
1377	377.1409
1378	373.2162
1379	371.3694
1380	360.2548
1381	322.039
1382	272.8004
1383	229.4456
1384	205.0967
1385	199.9688
1386	202.3801
1387	200.7841
1388	210.9338
1389	232.6614
1390	253.9607
1391	268.2211
1392	281.1434
1393	286.3594
1394	288.6297
1395	289.1104
1396	297.9193
1397	293.041
1398	265.0544
1399	249.3085
1400	258.2757
1401	248.9996
1402	225.2958
1403	223.9825
1404	241.5732
1405	251.7144
1406	258.0002
1407	264.309
1408	269.457
1409	274.8864
1410	287.3063
1411	307.627
1412	321.4815
1413	325.5958
1414	336.8924
1415	350.4784
1416	359.1315
1417	365.1704
1418	376.4236
1419	393.3743
1420	416.0053
1421	448.1498
1422	485.1344
1423	521.4091
1424	550.4932
1425	593.4143
1426	646.7482
1427	723.0807
1428	804.9414
1429	886.7881
1430	967.3682
1431	1054.929
1432	1145.375
1433	1231.705
1434	1299.531
1435	1331.232
1436	1363.983
1437	1380.775
1438	1386.83
1439	1381.015
1440	1381.804
1441	1383.29
1442	1385.089
1443	1390.828
1444	1397.812
1445	1387.489
1446	1361.735
1447	1343.745
1448	1333.011
1449	1309.931
1450	1297.233
1451	1307.002
1452	1320.31
1453	1322.788
1454	1334.367
1455	1350.956
1456	1342.557
1457	1305.676
1458	1258.615
1459	1207.173
1460	1153.445
1461	1097.295
1462	1032.671
1463	945.5312
1464	847.8882
1465	765.6174
1466	720.4589
1467	669.4442
1468	628.2348
1469	569.5887
1470	527.9794
1471	511.3573
1472	499.6948
1473	475.8015
1474	443.491
1475	410.7931
1476	385.7729
1477	374.4203
1478	362.7529
1479	345.5033
1480	306.417
1481	264.6368
1482	235.8288
1483	213.6025
1484	199.3929
1485	182.959
1486	168.0409
1487	149.9998
1488	138.8317
1489	136.062
1490	133.8706
1491	122.5187
1492	112.3047
1493	107.7645
1494	107.6803
1495	106.4509
1496	86.59653
1497	57.02058
1498	30.72801
1499	17.36438
1500	20.01875
1501	37.488
1502	63.11766
1503	93.40253
1504	117.2566
1505	135.6717
1506	141.9432
1507	149.3091
1508	143.1721
1509	122.1292
1510	92.8596
1511	67.02037
1512	53.61546
1513	56.55252
1514	57.03541
1515	59.75482
1516	63.24065
1517	77.39415
1518	105.7629
1519	126.6301
1520	128.5822
1521	118.3165
1522	102.2049
1523	99.27013
1524	104.7029
1525	107.4722
1526	102.1524
1527	85.40837
1528	73.17203
1529	70.48882
1530	59.32424
1531	47.29861
1532	46.07014
1533	58.19726
1534	77.45847
1535	104.7131
1536	132.9854
1537	145.0227
1538	133.7508
1539	115.4583
1540	99.15515
1541	97.53884
1542	104.8375
1543	108.716
1544	123.2319
1545	147.7831
1546	161.9799
1547	162.6379
1548	173.5409
1549	180.3893
1550	169.3333
1551	164.6241
1552	182.5088
1553	193.5966
1554	189.1499
1555	188.5116
1556	183.9225
1557	158.6701
1558	130.9034
1559	119.1386
1560	109.6846
1561	99.01341
1562	106.7511
1563	134.0777
1564	165.8009
1565	186.5524
1566	186.016
1567	174.3849
1568	166.8113
1569	143.7996
1570	110.4395
1571	84.87117
1572	79.23402
1573	85.76987
1574	98.72069
1575	100.9519
1576	101.8672
1577	103.8706
1578	105.26
1579	105.9409
1580	104.8992
1581	111.1961
1582	133.5477
1583	163.5085
1584	192.772
1585	223.2195
1586	243.9746
1587	255.9827
1588	248.0452
1589	224.937
1590	197.3115
1591	180.5806
1592	164.9323
1593	153.8781
1594	147.7571
1595	157.063
1596	190.4869
1597	219.2962
1598	217.1616
1599	216.2463
1600	226.0115
1601	228.4304
1602	221.4558
1603	211.4907
1604	199.9994
1605	190.4039
1606	188.3557
1607	193.2005
1608	183.2467
1609	165.1181
1610	163.3077
1611	166.148
1612	155.6291
1613	147.6491
1614	149.6236
1615	158.6362
1616	170.6358
1617	176.1894
1618	178.8382
1619	186.5057
1620	199.5027
1621	215.1375
1622	218.0437
1623	203.7037
1624	180.9361
1625	160.1341
1626	151.8842
1627	146.3949
1628	137.7752
1629	130.298
1630	129.9365
1631	144.6546
1632	161.3056
1633	161.7631
1634	158.3082
1635	159.6387
1636	173.0832
1637	195.4403
1638	216.8764
1639	232.7168
1640	245.8311
1641	252.4967
1642	251.5107
1643	229.8652
1644	195.9776
1645	171.2173
1646	158.7284
1647	151.2692
1648	147.5199
1649	146.716
1650	163.2382
1651	190.303
1652	205.4713
1653	212.9154
1654	222.2978
1655	231.7946
1656	239.186
1657	239.5064
1658	232.4914
1659	223.64
1660	222.9061
1661	237.3431
1662	237.3473
1663	218.4217
1664	211.0591
1665	215.2044
1666	219.1393
1667	217.6528
1668	206.5586
1669	201.2109
1670	208.233
1671	228.9218
1672	241.2025
1673	218.0366
1674	193.1027
1675	189.8518
1676	189.4586
1677	191.3826
1678	193.8965
1679	197.6712
1680	201.4937
1681	216.0708
1682	240.4001
1683	252.4006
1684	252.7925
1685	266.9514
1686	274.9814
1687	267.0965
1688	256.9051
1689	248.2217
1690	231.9619
1691	215.9761
1692	206.5415
1693	202.2083
1694	201.3153
1695	211.2656
1696	227.8842
1697	237.0317
1698	243.7827
1699	256.2209
1700	271.8463
1701	286.5856
1702	296.2478
1703	298.5372
1704	301.5301
1705	305.1722
1706	310.8371
1707	305.0709
1708	288.3083
1709	274.8962
1710	262.381
1711	244.4254
1712	239.777
1713	254.2159
1714	270.4037
1715	285.7968
1716	308.9916
1717	320.4968
1718	310.8317
1719	293.5592
1720	273.9373
1721	248.5148
1722	229.3696
1723	222.8935
1724	221.5799
1725	219.4759
1726	216.4877
1727	211.2737
1728	199.3491
1729	192.6238
1730	198.8824
1731	218.1522
1732	242.5962
1733	261.593
1734	267.2797
1735	263.1034
1736	241.2475
1737	210.6138
1738	203.7176
1739	215.5687
1740	214.5741
1741	223.3922
1742	247.4017
1743	271.6049
1744	277.5612
1745	253.6609
1746	212.7046
1747	180.689
1748	175.6197
1749	197.9401
1750	206.9782
1751	207.0219
1752	208.4024
1753	211.357
1754	215.2581
1755	209.5602
1756	198.6221
1757	196.6142
1758	187.3609
1759	163.7733
1760	140.4946
1761	124.9524
1762	108.2649
1763	98.02338
1764	93.07136
1765	106.5628
1766	138.3356
1767	180.7694
1768	209.1712
1769	205.1465
1770	198.5521
1771	203.8187
1772	208.1532
1773	204.2772
1774	184.4586
1775	171.5284
1776	177.5378
1777	180.8719
1778	178.7743
1779	173.2407
1780	163.028
1781	149.8354
1782	134.7499
1783	123.9823
1784	117.1322
1785	124.1653
1786	144.6935
1787	165.3336
1788	181.3523
1789	209.9908
1790	232.4771
1791	236.271
1792	238.5911
1793	243.6866
1794	245.501
1795	235.0697
1796	206.8354
1797	182.6962
1798	173.9828
1799	161.8971
1800	156.3447
1801	164.1795
1802	171.2508
1803	167.4895
1804	157.7269
1805	142.795
1806	123.1816
1807	106.5286
1808	98.25539
1809	97.3795
1810	108.2911
1811	129.5606
1812	154.4245
1813	173.2649
1814	174.9082
1815	162.6237
1816	162.1866
1817	160.4984
1818	153.1187
1819	168.9733
1820	200.9785
1821	216.6611
1822	223.9319
1823	232.0223
1824	224.5648
1825	206.7726
1826	201.7346
1827	204.6686
1828	208.7682
1829	217.0439
1830	224.9771
1831	225.5274
1832	221.8398
1833	219.7159
1834	213.1103
1835	205.9382
1836	209.0338
1837	211.3791
1838	202.6008
1839	198.658
1840	196.6457
1841	174.9527
1842	151.4334
1843	141.9589
1844	131.2273
1845	124.1823
1846	129.9238
1847	146.2084
1848	164.6213
1849	197.5001
1850	226.6555
1851	222.5765
1852	199.0443
1853	181.6929
1854	172.5091
1855	177.559
1856	192.8528
1857	209.9766
1858	217.4422
1859	226.3472
1860	232.6442
1861	233.1007
1862	225.8136
1863	214.5495
1864	206.81
1865	203.3602
1866	196.5904
1867	187.414
1868	178.6608
1869	190.3337
1870	213.7353
1871	224.876
1872	225.7254
1873	217.4075
1874	195.0347
1875	171.8672
1876	164.6752
1877	160.6247
1878	156.2831
1879	166.2089
1880	184.4939
1881	196.6752
1882	210.9493
1883	225.2572
1884	232.9651
1885	232.8098
1886	231.015
1887	224.0102
1888	213.4142
1889	202.1201
1890	187.4102
1891	167.7642
1892	159.5218
1893	166.1087
1894	175.2643
1895	173.8427
1896	155.7919
1897	162.8917
1898	186.1833
1899	188.6318
1900	186.2875
1901	186.7748
1902	179.5417
1903	170.7886
1904	171.2428
1905	170.3704
1906	165.6406
1907	166.0423
1908	167.0179
1909	161.8639
1910	183.5385
1911	223.1792
1912	230.7831
1913	223.8203
1914	226.4143
1915	226.0204
1916	219.2572
1917	205.0003
1918	184.5248
1919	165.4477
1920	166.3413
1921	177.8526
1922	169.7857
1923	170.1341
1924	184.307
1925	186.909
1926	189.9099
1927	208.1853
1928	223.2879
1929	229.3232
1930	240.7215
1931	243.0313
1932	231.9376
1933	230.3952
1934	223.2891
1935	175.2857
1936	134.2063
1937	130.7662
1938	143.011
1939	166.8863
1940	184.5427
1941	199.3319
1942	207.0349
1943	215.9214
1944	204.3205
1945	168.1283
1946	142.0869
1947	139.9544
1948	151.0813
1949	165.6232
1950	172.2376
1951	181.1604
1952	186.53
1953	185.6729
1954	173.9911
1955	154.7477
1956	135.0929
1957	124.6515
1958	128.7593
1959	144.3575
1960	167.4621
1961	192.5425
1962	210.4791
1963	214.1773
1964	209.1912
1965	195.224
1966	180.1458
1967	166.9941
1968	158.054
1969	142.7002
1970	134.485
1971	137.1284
1972	131.7235
1973	130.924
1974	150.1403
1975	169.9835
1976	182.0315
1977	197.7475
1978	210.5762
1979	217.6678
1980	212.0327
1981	193.3883
1982	171.032
1983	158.0317
1984	159.1954
1985	154.1381
1986	150.1157
1987	151.4023
1988	163.317
1989	174.6719
1990	165.9704
1991	153.9691
1992	150.8873
1993	157.8534
1994	165.9769
1995	163.5395
1996	161.3935
1997	161.1201
1998	160.2544
1999	164.0239
2000	171.8187
2001	173.888
2002	170.1955
2003	164.5267
2004	149.2611
2005	130.0303
2006	117.1344
2007	118.5575
2008	130.8741
2009	128.9157
2010	119.3467
2011	114.6808
2012	118.2873
2013	125.1594
2014	119.9065
2015	109.3291
2016	103.3383
2017	125.4918
2018	137.4015
2019	101.9446
2020	83.55838
2021	94.05343
2022	110.6622
2023	124.9106
2024	129.9425
2025	143.8887
2026	155.1071
2027	153.6174
2028	129.8581
2029	98.19106
2030	86.58879
2031	79.80243
2032	77.66969
2033	95.05438
2034	124.6223
2035	151.8367
2036	181.2005
2037	195.4997
2038	186.1465
2039	161.7012
2040	136.5847
2041	123.1336
2042	117.5467
2043	111.9859
2044	96.78754
2045	92.12223
2046	116.0583
2047	124.6427
2048	113.4423
2049	108.8027
2050	118.1353
2051	139.9867
2052	153.9268
2053	156.907
2054	152.0338
2055	144.1543
2056	129.9872
2057	103.9906
2058	83.89699
2059	76.81218
2060	65.3497
2061	68.97711
2062	91.01143
2063	117.2408
2064	140.8318
2065	158.4576
2066	162.0388
2067	151.0899
2068	139.1707
2069	128.3809
2070	122.5187
2071	117.769
2072	114.9929
2073	112.2442
2074	106.3249
2075	98.67172
2076	90.93327
2077	82.29486
2078	83.21927
2079	107.988
2080	124.9153
2081	119.517
2082	111.0632
2083	104.5652
2084	106.6947
2085	113.6413
2086	122.4263
2087	128.5076
2088	143.4408
2089	156.9212
2090	150.9302
2091	134.9968
2092	122.5778
2093	128.0326
2094	132.6971
2095	123.1553
2096	121.4099
2097	127.5646
2098	135.9993
2099	135.0551
2100	123.209
2101	108.0442
2102	94.44227
2103	85.18904
2104	69.56015
2105	63.03938
2106	69.56318
2107	71.76687
2108	80.77505
2109	100.1506
2110	102.8547
2111	88.29456
2112	70.95427
2113	69.38828
2114	83.02668
2115	90.09449
2116	94.42102
2117	97.50843
2118	108.9921
2119	110.3098
2120	95.18384
2121	82.09736
2122	77.30508
2123	82.78967
2124	89.55972
2125	97.52537
2126	107.6153
2127	110.0577
2128	104.439
2129	100.2729
2130	100.396
2131	102.3983
2132	92.92983
2133	80.84463
2134	74.45573
2135	77.01086
2136	80.03075
2137	73.37583
2138	59.74482
2139	46.88872
2140	43.27029
2141	48.3212
2142	58.92525
2143	67.23694
2144	76.32428
2145	79.33557
2146	67.20276
2147	46.43565
2148	30.04635
2149	27.40413
2150	34.25882
2151	41.72686
2152	49.6653
2153	56.44612
2154	61.30943
2155	61.321
2156	60.25996
2157	65.02502
2158	79.46946
2159	90.6087
2160	81.11962
2161	61.06375
2162	42.46206
2163	36.4151
2164	32.94004
2165	29.06624
2166	25.6473
2167	35.35859
2168	56.85397
2169	71.8716
2170	78.07697
2171	78.69099
2172	87.4487
2173	96.41883
2174	97.50689
2175	88.23874
2176	80.29942
2177	86.47881
2178	82.36091
2179	64.84794
2180	40.36238
2181	35.43303
2182	51.77186
2183	67.5854
2184	84.01649
2185	95.20035
2186	101.6927
2187	94.27832
2188	75.46539
2189	52.38485
2190	52.33592
2191	78.40273
2192	91.15591
2193	91.05693
2194	81.09225
2195	66.80918
2196	56.2173
2197	53.67973
2198	40.95722
2199	42.78579
2200	73.92706
2201	87.04086
2202	86.04483
2203	88.37122
2204	91.18872
2205	93.89365
2206	95.80492
2207	87.21482
2208	79.26748
2209	90.82583
2210	81.76975
2211	62.50562
2212	71.88442
2213	90.14639
2214	105.7085
2215	113.5224
2216	113.552
2217	109.0639
2218	110.5827
2219	95.65203
2220	68.87231
2221	59.51108
2222	67.34359
2223	82.22098
2224	82.6478
2225	79.90599
2226	82.99391
2227	96.12943
2228	106.4496
2229	108.223
2230	118.6788
2231	133.5569
2232	144.7355
2233	138.077
2234	127.5098
2235	125.9834
2236	120.1237
2237	109.7565
2238	98.48103
2239	100.0976
2240	106.8996
2241	106.8996
2242	95.8903
2243	87.04305
2244	90.86275
2245	84.89378
2246	87.57996
2247	111.0183
2248	126.6367
2249	130.9662
2250	129.6937
2251	130.1129
2252	129.7501
2253	125.879
2254	114.0927
2255	111.9964
2256	130.0409
2257	119.7258
2258	95.36461
2259	85.19479
2260	78.0614
2261	71.28056
2262	61.84665
2263	67.57307
2264	89.84334
2265	117.0889
2266	134.8554
2267	141.9394
2268	146.3956
2269	137.2428
2270	119.9192
2271	108.8769
2272	116.7109
2273	141.5602
2274	168.9228
2275	198.5984
2276	204.9478
2277	177.3279
2278	148.7566
2279	130.3572
2280	127.2445
2281	131.9771
2282	149.7524
2283	177.0383
2284	209.5034
2285	219.3161
2286	194.9224
2287	173.1194
2288	157.4857
2289	147.8842
2290	128.9025
2291	121.4818
2292	137.1844
2293	161.5114
2294	173.2217
2295	160.7944
2296	149.1744
2297	137.548
2298	131.0736
2299	136.7191
2300	157.7696
2301	184.2785
2302	205.8255
2303	211.2703
2304	200.5242
2305	188.3475
2306	176.06
2307	175.5104
2308	204.851
2309	217.6511
2310	197.9393
2311	172.5663
2312	160.9188
2313	164.8382
2314	158.008
2315	159.4012
2316	173.945
2317	196.8179
2318	198.8016
2319	187.834
2320	194.7774
2321	210.7658
2322	233.1335
2323	254.6851
2324	251.3005
2325	238.729
2326	243.8978
2327	240.5412
2328	220.6292
2329	187.8733
2330	173.7591
2331	160.0668
2332	129.3915
2333	89.44713
2334	74.45092
2335	98.02096
2336	131.6308
2337	147.0587
2338	145.3058
2339	190.7937
2340	217.2863
2341	209.7025
2342	217.5024
2343	220.5716
2344	224.306
2345	244.761
2346	248.6313
2347	237.8726
2348	234.1097
2349	225.2396
2350	217.07
2351	216.2225
2352	210.0664
2353	203.6697
2354	200.9339
2355	189.7431
2356	182.1465
2357	184.3585
2358	180.3911
2359	182.4459
2360	193.251
2361	203.8545
2362	201.4711
2363	187.9393
2364	181.8199
2365	193.6922
2366	215.7505
2367	227.8891
2368	244.0696
2369	261.4538
2370	273.0298
2371	264.401
2372	248.0698
2373	241.291
2374	228.933
2375	214.1204
2376	200.2297
2377	185.6312
2378	185.7503
2379	195.8977
2380	188.2734
2381	185.5027
2382	187.8481
2383	180.7846
2384	177.5969
2385	179.2487
2386	181.431
2387	190.6787
2388	195.7519
2389	187.7665
2390	176.4095
2391	177.1499
2392	193.1483
2393	200.0522
2394	203.6279
2395	202.9801
2396	193.0498
2397	181.8312
2398	172.7607
2399	165.211
2400	193.2513
2401	231.0642
2402	237.197
2403	237.2722
2404	229.4604
2405	214.4848
2406	181.1272
2407	144.2977
2408	126.8005
2409	139.0549
2410	155.9535
2411	163.1252
2412	161.1565
2413	153.602
2414	132.317
2415	98.27296
2416	77.00003
2417	88.6218
2418	128.5182
2419	168.2145
2420	191.1544
2421	194.0231
2422	197.5446
2423	188.4321
2424	163.1041
2425	127.2476
2426	122.1674
2427	134.6193
2428	137.0779
2429	135.287
2430	143.3806
2431	161.7651
2432	169.55
2433	151.5455
2434	122.953
2435	119.4202
2436	128.3708
2437	142.7961
2438	152.7185
2439	165.775
2440	173.9383
2441	171.3854
2442	158.6921
2443	145.0376
2444	145.6289
2445	168.7372
2446	176.4829
2447	179.0934
2448	197.4449
2449	192.5226
2450	171.0414
2451	147.4018
2452	120.5864
2453	94.22302
2454	79.81519
2455	87.24531
2456	123.4626
2457	164.3098
2458	178.5165
2459	177.9275
2460	159.9405
2461	134.6841
2462	105.9678
2463	107.7295
2464	134.3155
2465	145.4035
2466	156.9509
2467	162.3616
2468	156.7537
2469	143.9593
2470	128.6639
2471	123.4199
2472	140.5189
2473	127.2804
2474	101.229
2475	112.3555
2476	122.0193
2477	129.3613
2478	134.9306
2479	138.3106
2480	136.7771
2481	126.8822
2482	106.4202
2483	93.23517
2484	87.56607
2485	81.79371
2486	77.42731
2487	90.05273
2488	107.1292
2489	85.06431
2490	85.56788
2491	104.3513
2492	104.1242
2493	102.989
2494	92.70596
2495	82.51895
2496	114.3751
2497	120.7325
2498	101.9451
2499	111.2459
2500	118.6503
2501	118.0526
2502	112.68
2503	119.3972
2504	132.5157
2505	140.4256
2506	133.4528
2507	144.2796
2508	149.9418
2509	129.3344
2510	120.9332
2511	120.2423
2512	117.3285
2513	99.27841
2514	86.78835
2515	94.87548
2516	120.1833
2517	116.5878
2518	121.5378
2519	146.2919
2520	160.5243
2521	157.0671
2522	136.6554
2523	115.2309
2524	109.9931
2525	108.0701
2526	105.2967
2527	114.6323
2528	131.1225
2529	134.6818
2530	116.0054
2531	114.7325
2532	121.196
2533	128.0241
2534	134.894
2535	117.9182
2536	110.1232
2537	136.3559
2538	128.0075
2539	117.2454
2540	111.8643
2541	91.73075
2542	84.19334
2543	95.24714
2544	117.0402
2545	143.5089
2546	154.2553
2547	144.0504
2548	127.0105
2549	117.3024
2550	111.2415
2551	104.2523
2552	104.8545
2553	84.20818
2554	60.82956
2555	71.02812
2556	73.27209
2557	98.32259
2558	140.3445
2559	144.1053
2560	144.945
2561	143.3094
2562	134.6988
2563	134.7611
2564	124.2248
2565	104.5659
2566	96.33831
2567	67.28133
2568	49.94199
2569	62.33216
2570	52.89927
2571	57.83702
2572	78.63148
2573	96.26359
2574	118.9781
2575	129.2494
2576	126.3365
2577	134.9651
2578	127.8821
2579	111.5031
2580	103.0775
2581	100.9744
2582	109.8585
2583	119.0321
2584	115.1663
2585	122.7024
2586	125.0491
2587	114.6623
2588	108.1001
2589	92.20867
2590	77.40449
2591	78.30458
2592	94.05838
2593	130.5594
2594	164.207
2595	167.7321
2596	181.9539
2597	177.0024
2598	146.2585
2599	124.4798
2600	123.5572
2601	138.0957
2602	147.0867
2603	134.1303
2604	132.1373
2605	140.937
2606	139.4292
2607	145.2242
2608	158.3777
2609	165.8694
2610	150.0809
2611	132.1165
2612	116.3969
2613	107.1243
2614	109.3058
2615	121.575
2616	136.7264
2617	142.8313
2618	131.5982
2619	113.2838
2620	90.56731
2621	60.22679
2622	46.42524
2623	52.0329
2624	70.56483
2625	93.37863
2626	111.2938
2627	131.3383
2628	151.7426
2629	146.7278
2630	135.8101
2631	128.6762
2632	128.7131
2633	133.0695
2634	135.507
2635	140.8477
2636	153.6176
2637	143.2968
2638	141.7272
2639	154.9679
2640	158.7914
2641	147.3412
2642	134.6686
2643	126.7117
2644	109.7292
2645	89.04362
2646	85.18962
2647	102.367
2648	113.4975
2649	91.09084
2650	63.01804
2651	65.06716
2652	79.41537
2653	102.903
2654	125.9217
2655	140.4769
2656	151.6186
2657	136.1628
2658	97.11361
2659	59.18845
2660	45.27194
2661	60.7367
2662	96.64013
2663	132.2923
2664	145.9561
2665	140.9897
2666	122.6077
2667	93.42599
2668	76.26399
2669	90.08363
2670	126.2989
2671	152.6668
2672	139.8126
2673	120.8612
2674	119.061
2675	109.1585
2676	95.30195
2677	84.03697
2678	80.38644
2679	80.79302
2680	65.19393
2681	81.07529
2682	146.1761
2683	198.4435
2684	221.0225
2685	204.5173
2686	162.7603
2687	117.4358
2688	79.16021
2689	70.73134
2690	94.01182
2691	120.9521
2692	139.1352
2693	135.2983
2694	113.5885
2695	94.79567
2696	103.4063
2697	126.0264
2698	137.1631
2699	137.2752
2700	148.2893
2701	155.1131
2702	145.8646
2703	143.6359
2704	149.8645
2705	155.9647
2706	151.4682
2707	138.065
2708	133.6852
2709	140.4003
2710	150.5817
2711	156.7266
2712	161.3794
2713	158.65
2714	150.3523
2715	149.2572
2716	139.562
2717	130.7285
2718	135.535
2719	154.7299
2720	158.9404
2721	156.2944
2722	167.3235
2723	201.3963
2724	221.7643
2725	208.8632
2726	185.4568
2727	197.3677
2728	178.7594
2729	163.2297
2730	178.0847
2731	212.8769
2732	228.1675
2733	228.9576
2734	228.1225
2735	229.8006
2736	203.0535
2737	194.8054
2738	204.4222
2739	198.2695
2740	181.0544
2741	177.8618
2742	171.2967
2743	139.0305
2744	106.626
2745	98.17731
2746	97.61769
2747	93.23816
2748	118.1776
2749	142.8507
2750	144.8386
2751	129.1733
2752	130.4486
2753	128.9628
2754	135.0784
2755	152.7506
2756	170.5248
2757	157.5966
2758	136.6765
2759	135.4596
2760	158.0992
2761	164.4827
2762	183.8282
2763	200.8943
2764	191.6773
2765	172.78
2766	162.9633
2767	172.476
2768	187.6073
2769	178.6365
2770	168.3398
2771	157.9831
2772	148.2068
2773	140.9747
2774	133.1371
2775	125.3224
2776	120.7876
2777	121.3456
2778	116.5199
2779	121.4525
2780	129.0284
2781	128.6329
2782	127.6952
2783	107.3077
2784	95.30762
2785	99.25978
2786	88.4173
2787	73.34792
2788	59.08846
2789	56.38352
2790	70.44038
2791	87.19633
2792	113.9596
2793	138.7769
2794	145.4125
2795	131.3646
2796	103.0377
2797	83.75874
2798	82.77533
2799	87.78567
2800	120.4483
2801	147.9617
2802	148.5178
2803	129.0712
2804	115.653
2805	92.99058
2806	75.81409
2807	77.42377
2808	91.05424
2809	102.7943
2810	105.9481
2811	106.5452
2812	106.6399
2813	66.62659
2814	50.49332
2815	56.45483
2816	69.59373
2817	108.6135
2818	150.2423
2819	159.0011
2820	123.5032
2821	73.20885
2822	55.05853
2823	64.2649
2824	74.77177
2825	76.90771
2826	103.2451
2827	105.9444
2828	99.80075
2829	102.8819
2830	118.9692
2831	149.1714
2832	149.4763
2833	146.8274
2834	164.6326
2835	167.31
2836	169.9791
2837	183.2086
2838	199.3699
2839	207.8349
2840	236.0907
2841	259.6705
2842	275.6797
2843	293.3806
2844	320.9702
2845	364.5335
2846	389.4749
2847	406.8419
2848	435.9957
2849	443.4515
2850	435.559
2851	427.126
2852	421.2503
2853	407.2423
2854	400.1021
2855	394.1557
2856	400.8742
2857	416.371
2858	409.7998
2859	394.5536
2860	377.8336
2861	362.0121
2862	345.9605
2863	336.6936
2864	343.3625
2865	359.2932
2866	382.4719
2867	416.6183
2868	456.12
2869	462.1109
2870	445.8311
2871	432.7027
2872	425.7912
2873	422.3783
2874	424.8535
2875	421.6687
2876	404.8013
2877	385.3883
2878	356.8718
2879	340.1776
2880	339.7481
2881	341.9279
2882	340.9683
2883	349.529
2884	373.6771
2885	398.0338
2886	400.5971
2887	398.8302
2888	388.9662
2889	391.9873
2890	410.6359
2891	422.5189
2892	437.4496
2893	430.0667
2894	406.8119
2895	377.7821
2896	340.2719
2897	331.9944
2898	342.867
2899	357.663
2900	365.8011
2901	365.2038
2902	357.2926
2903	330.6924
2904	311.9783
2905	325.4374
2906	349.5945
2907	352.9978
2908	351.2916
2909	337.522
2910	306.9152
2911	290.5476
2912	297.4477
2913	316.2126
2914	323.3692
2915	312.6467
2916	307.9313
2917	306.9332
2918	303.3939
2919	301.6163
2920	303.9048
2921	296.6977
2922	293.6553
2923	287.1997
2924	279.0331
2925	274.0233
2926	267.2552
2927	261.6071
2928	261.1718
2929	270.2246
2930	282.7505
2931	281.4362
2932	257.6891
2933	252.1303
2934	257.4604
2935	260.9326
2936	283.2747
2937	282.6394
2938	274.3572
2939	244.2194
2940	201.0775
2941	188.1761
2942	166.302
2943	152.6169
2944	154.6392
2945	161.7453
2946	158.7222
2947	172.1702
2948	178.039
2949	171.4209
2950	144.1018
2951	111.4633
2952	149.6748
2953	147.7035
2954	145.3487
2955	163.2311
2956	175.8213
2957	170.6347
2958	126.0761
2959	117.3674
2960	131.2871
2961	118.8585
2962	98.18443
2963	84.91199
2964	80.73625
2965	59.02118
2966	33.65863
2967	51.29256
2968	64.18256
2969	81.21205
2970	91.80943
2971	99.60561
2972	108.7606
2973	95.45317
2974	96.68057
2975	77.89641
2976	56.3465
2977	56.40999
2978	51.84927
2979	51.01455
2980	52.15656
2981	64.31924
2982	81.18743
2983	84.35963
2984	82.36603
2985	80.59258
2986	85.11897
2987	84.33399
2988	74.35948
2989	79.27557
2990	72.87234
2991	63.87643
2992	52.94885
2993	49.99159
2994	61.73879
2995	49.94608
2996	45.14815
2997	38.33296
2998	26.65627
2999	16.02387
3000	13.88195
3001	61.59526
3002	104.3427
3003	123.058
3004	117.9729
3005	97.33092
3006	85.00674
3007	74.99965
3008	85.61118
3009	99.87218
3010	107.7517
3011	126.8453
3012	110.5853
3013	101.7638
3014	105.2209
3015	107.9882
3016	96.9959
3017	74.74796
3018	79.38
3019	68.94436
3020	59.47258
3021	65.26297
3022	67.92576
3023	66.65195
3024	62.25497
3025	59.84465
3026	81.6701
3027	124.4989
3028	148.4087
3029	143.8681
3030	135.6961
3031	128.6848
3032	115.6214
3033	105.2018
3034	118.4602
3035	107.2627
3036	106.5954
3037	118.9596
3038	138.4566
3039	153.8406
3040	151.9661
3041	140.3142
3042	121.2144
3043	116.02
3044	117.1577
3045	118.789
3046	151.5595
3047	176.3963
3048	177.5076
3049	156.1333
3050	143.7596
3051	155.3002
3052	153.5395
3053	141.3449
3054	155.6228
3055	160.7588
3056	135.5344
3057	102.7045
3058	86.27048
3059	87.14428
3060	73.20124
3061	86.9994
3062	115.1497
3063	122.5995
3064	130.6846
3065	109.0597
3066	122.4513
3067	154.5123
3068	185.8411
3069	196.984
3070	168.9945
3071	142.8506
3072	117.0996
3073	124.3777
3074	151.8115
3075	167.4756
3076	161.0198
3077	126.8219
3078	99.1791
3079	89.75821
3080	94.39373
3081	105.8011
3082	116.7221
3083	116.0185
3084	126.2232
3085	140.4812
3086	153.098
3087	155.0584
3088	138.0302
3089	105.4628
3090	77.38653
3091	113.5261
3092	151.5641
3093	183.9019
3094	218.3755
3095	221.274
3096	192.3987
3097	147.5501
3098	148.0688
3099	153.7489
3100	151.7379
3101	163.1701
3102	157.4801
3103	143.222
3104	146.8955
3105	159.8087
3106	153.2272
3107	136.4187
3108	144.3539
3109	152.7052
3110	144.7415
3111	156.872
3112	162.6174
3113	130.9659
3114	93.76422
3115	105.3877
3116	117.4421
3117	112.6988
3118	92.17501
3119	74.26923
3120	59.07748
3121	52.194
3122	88.11044
3123	115.6123
3124	127.9914
3125	129.321
3126	114.8026
3127	82.96205
3128	57.61822
3129	66.81572
3130	76.926
3131	108.1585
3132	142.8491
3133	154.2015
3134	138.0419
3135	120.9088
3136	121.106
3137	94.97049
3138	90.11524
3139	85.56117
3140	75.70925
3141	72.69038
3142	82.58692
3143	104.8545
3144	98.06373
3145	103.8165
3146	99.83729
3147	96.76239
3148	104.2849
3149	106.4012
3150	107.544
3151	109.549
3152	93.16408
3153	90.42719
3154	95.76575
3155	87.32776
3156	71.47567
3157	71.17976
3158	80.53284
3159	70.85247
3160	99.74771
3161	123.037
3162	108.6047
3163	85.38931
3164	75.55217
3165	78.90609
3166	84.24508
3167	100.8548
3168	108.5005
3169	88.42143
3170	54.29338
3171	38.27629
3172	42.12278
3173	52.64993
3174	71.37413
3175	97.25175
3176	108.9806
3177	110.5395
3178	115.7915
3179	108.2132
3180	90.09786
3181	88.29143
3182	104.7775
3183	118.6174
3184	136.4233
3185	148.3234
3186	129.1075
3187	109.621
3188	109.1117
3189	94.60879
3190	83.64342
3191	87.23872
3192	84.1294
3193	73.85307
3194	89.17563
3195	107.7037
3196	76.73055
3197	68.11581
3198	55.07622
3199	49.01722
3200	68.9838
