RamanShift	Intensity
190	3762.514
191	3730.963
192	3696.824
193	3667.69
194	3631.87
195	3598.192
196	3563.688
197	3532.743
198	3503.128
199	3464.427
200	3430.57
201	3392.84
202	3360.348
203	3318.585
204	3267.529
205	3218.708
206	3166.572
207	3127.447
208	3089.798
209	3065.771
210	3042.806
211	3018.249
212	2998.04
213	2974.169
214	2953.461
215	2928.694
216	2902.634
217	2864.114
218	2808.08
219	2756.174
220	2712.453
221	2689.05
222	2666.797
223	2651.418
224	2626.527
225	2585.658
226	2539.868
227	2486.683
228	2440.99
229	2396.05
230	2362.935
231	2324.049
232	2274.681
233	2233.105
234	2194.965
235	2173.514
236	2151.997
237	2135.011
238	2108.524
239	2067.97
240	2020.605
241	1959.948
242	1906.397
243	1857.057
244	1826.071
245	1799.491
246	1775.288
247	1752.799
248	1711.727
249	1676.375
250	1655.934
251	1653.57
252	1639.88
253	1605.626
254	1565.828
255	1524.454
256	1491.32
257	1459.819
258	1438.916
259	1417.016
260	1393.641
261	1373.37
262	1352.374
263	1336.387
264	1319.438
265	1302.027
266	1269.151
267	1221.269
268	1172.731
269	1131.969
270	1099.614
271	1057.494
272	1018.336
273	970.98
274	923.2412
275	880.8247
276	846.9243
277	825.8521
278	794.5609
279	774.2745
280	765.3306
281	771.4891
282	775.8154
283	767.0991
284	755.1075
285	747.5416
286	739.111
287	720.2781
288	691.9985
289	655.8127
290	614.5817
291	581.4489
292	562.6559
293	558.0713
294	543.5865
295	525.5052
296	502.8839
297	479.7531
298	463.3183
299	458.1999
300	459.2234
301	449.0768
302	433.5501
303	416.8723
304	402.8494
305	394.9328
306	396.6865
307	398.3579
308	382.8242
309	361.1635
310	346.2453
311	340.398
312	326.4573
313	299.8321
314	271.5679
315	248.1499
316	231.1904
317	209.0635
318	190.1567
319	171.4925
320	157.0868
321	147.5317
322	139.5788
323	139.5385
324	146.0719
325	155.6032
326	155.0729
327	142.7119
328	129.1438
329	120.8307
330	113.8156
331	104.1747
332	95.01338
333	80.46016
334	66.32928
335	58.31164
336	60.11481
337	70.76242
338	88.71056
339	103.9333
340	102.6375
341	90.26371
342	89.23427
343	101.2185
344	109.8755
345	107.6166
346	100.0549
347	93.58305
348	86.6145
349	77.73071
350	70.42638
351	67.67081
352	71.03252
353	74.92422
354	73.13403
355	72.34815
356	80.14056
357	90.21646
358	90.63531
359	82.04926
360	82.64076
361	100.3259
362	116.0069
363	114.4217
364	104.5406
365	102.6942
366	104.966
367	104.3823
368	98.94238
369	85.03924
370	60.52069
371	38.57394
372	27.29588
373	29.0608
374	32.22071
375	38.27021
376	44.92295
377	49.85533
378	49.05932
379	39.49914
380	27.63617
381	21.27829
382	21.5054
383	23.09236
384	27.48366
385	37.12338
386	51.71676
387	62.70285
388	61.8103
389	58.91751
390	74.39671
391	94.98325
392	98.50787
393	80.41918
394	61.95082
395	53.49107
396	50.34687
397	48.15139
398	49.45187
399	47.34579
400	46.57217
401	53.82261
402	70.00348
403	93.07118
404	121.1968
405	143.4135
406	156.4556
407	159.1842
408	169.7518
409	179.5583
410	180.0592
411	169.0081
412	157.347
413	151.7726
414	153.8712
415	165.0491
416	179.4771
417	186.8499
418	185.6378
419	182.5864
420	178.9305
421	177.5625
422	181.3178
423	185.1979
424	186.1177
425	182.2498
426	172.0131
427	158.379
428	147.2705
429	142.3774
430	136.4146
431	125.4534
432	119.6374
433	122.6716
434	135.3359
435	150.3326
436	167.6143
437	190.5355
438	212.9565
439	224.0703
440	216.7116
441	201.7318
442	195.6025
443	190.2046
444	176.3915
445	161.1661
446	151.7009
447	152.01
448	159.4882
449	171.9531
450	182.0086
451	180.0022
452	173.9744
453	177.8618
454	186.0823
455	187.8286
456	183.7428
457	185.7692
458	198.0314
459	217.7942
460	243.8362
461	265.8717
462	284.6656
463	286.7594
464	270.2628
465	238.7922
466	217.5782
467	216.9109
468	219.3311
469	212.938
470	211.1736
471	215.2466
472	232.252
473	268.8863
474	313.5413
475	347.5072
476	359.1823
477	361.5757
478	359.8612
479	357.0312
480	363.7718
481	373.8553
482	385.5172
483	393.2585
484	391.7333
485	381.3851
486	376.7016
487	382.9521
488	389.8849
489	391.5985
490	388.9388
491	383.3674
492	374.8925
493	365.3116
494	357.0786
495	348.8907
496	342.9158
497	339.2723
498	338.2479
499	337.5494
500	331.5778
501	329.5567
502	338.1774
503	355.0956
504	375.8465
505	393.8659
506	403.0729
507	398.6682
508	386.7794
509	374.3924
510	358.7445
511	341.2668
512	322.1036
513	293.9118
514	267.8324
515	246.7849
516	239.9274
517	248.4522
518	271.8096
519	292.4233
520	295.1257
521	288.806
522	286.8642
523	284.2
524	280.4677
525	278.1503
526	280.3929
527	287.6535
528	295.8488
529	302.1758
530	312.8553
531	331.9366
532	351.5558
533	372.2254
534	384.1873
535	391.2939
536	387.0745
537	375.1931
538	356.8544
539	340.3992
540	330.9356
541	320.7818
542	302.3981
543	287.0681
544	274.1555
545	272.249
546	280.2135
547	295.165
548	303.1426
549	299.9634
550	292.4021
551	283.2254
552	274.2948
553	269.2365
554	260.9292
555	240.5575
556	214.238
557	181.3611
558	153.8082
559	139.8648
560	144.9591
561	150.3808
562	150.6017
563	156.3849
564	171.0319
565	188.4741
566	204.6714
567	215.7984
568	225.5794
569	226.93
570	220.9422
571	208.7309
572	202.4191
573	205.4218
574	206.1718
575	199.7416
576	187.3378
577	169.1868
578	150.5751
579	131.5493
580	121.3932
581	121.6619
582	133.0039
583	140.1372
584	141.3976
585	146.1367
586	156.1666
587	167.6745
588	179.2318
589	188.7278
590	199.8264
591	203.565
592	197.7962
593	184.5347
594	175.2601
595	171.5541
596	167.9618
597	164.7164
598	161.242
599	157.2072
600	152.5686
601	145.7892
602	142.725
603	149.1115
604	155.967
605	147.446
606	130.712
607	121.6005
608	124.407
609	135.8465
610	153.7799
611	163.8367
612	158.0948
613	148.9748
614	147.1127
615	149.3932
616	154.8201
617	161.1503
618	163.5494
619	161.6936
620	158.917
621	155.6056
622	153.9268
623	153.9562
624	146.348
625	127.434
626	112.2621
627	112.0395
628	119.5602
629	122.3056
630	124.9867
631	129.7614
632	133.4469
633	133.2478
634	128.2816
635	121.5608
636	114.2626
637	105.582
638	96.38218
639	92.22605
640	96.57548
641	101.691
642	94.43771
643	89.72633
644	102.5308
645	126.1128
646	149.9754
647	167.1713
648	175.6803
649	171.6121
650	164.1361
651	156.5786
652	147.5791
653	138.8871
654	122.7966
655	88.71532
656	62.93282
657	63.81708
658	81.03221
659	82.5435
660	74.87711
661	68.39268
662	66.23299
663	70.87194
664	83.27758
665	98.16701
666	112.2871
667	127.1736
668	141.1469
669	165.0773
670	213.3478
671	255.2056
672	274.4543
673	269.9479
674	273.1
675	274.4752
676	273.4645
677	267.4075
678	252.2951
679	229.8309
680	205.2603
681	185.1675
682	177.2143
683	186.7733
684	195.9303
685	184.1952
686	167.8546
687	161.998
688	163.6139
689	162.8192
690	164.6964
691	174.9788
692	188.6762
693	190.2098
694	178.6844
695	178.0847
696	193.9422
697	197.4561
698	175.9401
699	152.0744
700	143.0593
701	145.271
702	150.8529
703	162.3152
704	175.7597
705	185.6245
706	184.9845
707	178.5747
708	186.8666
709	208.2078
710	227.9229
711	239.9421
712	250.2118
713	258.7659
714	269.4251
715	285.3508
716	299.3002
717	309.6573
718	312.1166
719	310.4518
720	303.7212
721	298.8266
722	294.4451
723	288.7468
724	283.0178
725	276.25
726	269.6631
727	258.6898
728	246.8755
729	246.6527
730	262.0922
731	271.8015
732	264.5231
733	256.7687
734	260.136
735	264.7193
736	260.8086
737	258.9541
738	269.616
739	285.9615
740	300.2233
741	308.7034
742	313.7175
743	312.7115
744	312.0889
745	311.4018
746	307.9068
747	302.567
748	301.323
749	307.1444
750	322.5483
751	346.2206
752	371.46
753	394.2096
754	404.8429
755	402.64
756	394.5949
757	405.5146
758	415.8834
759	403.4442
760	378.4347
761	359.0468
762	355.7853
763	372.9856
764	408.8648
765	444.627
766	470.4707
767	505.0127
768	545.7379
769	589.4389
770	630.0364
771	659.3431
772	678.7412
773	681.0561
774	676.0049
775	660.5131
776	645.2657
777	630.9313
778	616.6504
779	611.4957
780	617.6079
781	630.5929
782	631.6606
783	622.8204
784	619.6221
785	620.3349
786	612.2775
787	592.9039
788	561.465
789	524.0505
790	490.438
791	471.0108
792	468.0824
793	479.5152
794	496.2578
795	504.6961
796	510.717
797	520.3093
798	525.7387
799	526.1978
800	520.853
801	516.7098
802	510.0635
803	496.9331
804	481.4261
805	466.4853
806	457.2752
807	450.77
808	451.3203
809	458.8208
810	473.57
811	493.1498
812	514.4922
813	544.3743
814	580.4401
815	613.1293
816	635.8975
817	642.7675
818	635.2419
819	619.3222
820	607.8654
821	602.9632
822	608.4644
823	617.439
824	611.9039
825	609.5971
826	633.2386
827	668.7293
828	696.7762
829	712.0948
830	728.5974
831	734.9671
832	727.6616
833	706.7909
834	683.3607
835	666.5414
836	662.9045
837	679.4525
838	713.975
839	761.3224
840	813.5201
841	860.3856
842	915.0327
843	981.7559
844	1040.991
845	1086.702
846	1112.01
847	1130.703
848	1136.016
849	1147.952
850	1142.643
851	1117.445
852	1068.502
853	994.853
854	923.1688
855	862.9477
856	829.5858
857	792.106
858	770.998
859	758.9186
860	759.1848
861	750.3364
862	734.5261
863	714.2082
864	693.1655
865	664.869
866	636.9681
867	613.3544
868	601.9526
869	598.7704
870	602.8799
871	604.7757
872	599.0156
873	588.3913
874	574.1148
875	552.4962
876	524.2219
877	501.4046
878	492.8934
879	489.277
880	476.5838
881	470.3311
882	477.4658
883	486.1056
884	478.8426
885	469.8741
886	475.3358
887	485.854
888	487.7652
889	487.7471
890	496.6711
891	507.6619
892	514.2739
893	514.9818
894	515.106
895	513.7722
896	513.2716
897	513.8415
898	516.4173
899	519.2545
900	519.2275
901	513.8972
902	501.3436
903	482.6885
904	462.785
905	445.8799
906	425.5762
907	404.9362
908	385.619
909	371.0897
910	354.5619
911	336.438
912	322.868
913	316.8561
914	308.6594
915	293.7815
916	281.1902
917	275.0846
918	268.5098
919	256.6406
920	244.5648
921	234.4742
922	223.0977
923	205.6854
924	193.4153
925	192.698
926	192.1871
927	176.8467
928	157.1837
929	139.083
930	130.5633
931	130.8926
932	144.5683
933	166.2233
934	188.5033
935	200.5743
936	204.2021
937	217.4511
938	224.0775
939	216.6648
940	192.8647
941	155.1878
942	119.2999
943	101.2643
944	104.3054
945	104.5071
946	102.9189
947	88.16711
948	70.98022
949	70.84334
950	86.13615
951	99.41561
952	105.5503
953	99.48229
954	84.30878
955	77.56041
956	80.6471
957	81.20388
958	79.72326
959	78.21577
960	79.98382
961	92.37097
962	114.4114
963	137.9614
964	155.5546
965	163.5831
966	157.6615
967	145.138
968	128.9954
969	113.715
970	104.5696
971	99.7388
972	100.0035
973	97.02
974	89.41758
975	81.96586
976	76.71243
977	68.39733
978	57.31836
979	49.35767
980	47.77759
981	49.63533
982	53.80881
983	58.84348
984	63.00045
985	65.69561
986	65.86763
987	62.3404
988	55.31683
989	46.58807
990	38.79616
991	33.95104
992	33.9632
993	36.46799
994	39.55437
995	41.88708
996	42.23706
997	50.02278
998	68.37612
999	94.90841
1000	124.1769
1001	148.3658
1002	159.7676
1003	154.8622
1004	135.1931
1005	113.7612
1006	101.9868
1007	88.9608
1008	71.81235
1009	54.90989
1010	40.7883
1011	33.88524
1012	35.67961
1013	42.12027
1014	48.61499
1015	49.68467
1016	41.96429
1017	46.60396
1018	72.76138
1019	100.4961
1020	117.2461
1021	132.4163
1022	148.3786
1023	159.1717
1024	163.173
1025	164.9435
1026	168.1312
1027	170.6427
1028	172.5692
1029	179.6904
1030	193.408
1031	199.2015
1032	190.3468
1033	177.1762
1034	167.4237
1035	167.0864
1036	179.3616
1037	191.6253
1038	196.3356
1039	204.888
1040	219.726
1041	238.1995
1042	256.3861
1043	276.978
1044	297.3609
1045	309.3221
1046	311.0066
1047	326.7127
1048	360.3314
1049	391.649
1050	408.5352
1051	410.0667
1052	396.5427
1053	388.2171
1054	393.0111
1055	399.8648
1056	406.0036
1057	413.5131
1058	421.596
1059	434.9265
1060	451.2505
1061	469.9329
1062	485.5343
1063	494.2566
1064	492.205
1065	487.1751
1066	478.7355
1067	462.7505
1068	442.6066
1069	419.8999
1070	402.3687
1071	387.5448
1072	383.2015
1073	386.4656
1074	401.0188
1075	427.1237
1076	454.403
1077	468.0903
1078	467.092
1079	479.4642
1080	492.2572
1081	484.5775
1082	462.8848
1083	449.6591
1084	444.6173
1085	437.7454
1086	431.0255
1087	422.8706
1088	406.7167
1089	364.5969
1090	323.3999
1091	309.2506
1092	312.0495
1093	291.6009
1094	267.8474
1095	249.9428
1096	238.929
1097	224.9409
1098	214.6348
1099	204.0806
1100	195.7358
1101	183.2019
1102	182.6036
1103	202.3264
1104	224.6926
1105	232.7162
1106	233.4942
1107	233.4702
1108	225.9886
1109	211.3058
1110	194.7258
1111	181.6653
1112	175.3554
1113	177.2429
1114	173.9774
1115	160.1673
1116	149.2361
1117	147.2229
1118	149.2151
1119	154.2888
1120	163.3009
1121	174.3654
1122	184.125
1123	189.8232
1124	195.8006
1125	198.7434
1126	190.5779
1127	177.4895
1128	185.5197
1129	211.003
1130	229.7503
1131	239.1444
1132	251.6416
1133	260.9335
1134	269.662
1135	272.1458
1136	269.3012
1137	261.9967
1138	255.9753
1139	254.3051
1140	260.8238
1141	266.7995
1142	260.8243
1143	247.9376
1144	233.3477
1145	224.1011
1146	224.5393
1147	229.8551
1148	232.8313
1149	231.9296
1150	225.1267
1151	217.0207
1152	211.5719
1153	199.9978
1154	181.4405
1155	164.9614
1156	156.1066
1157	141.743
1158	123.2684
1159	111.1409
1160	108.5904
1161	97.92693
1162	81.79236
1163	69.9899
1164	65.6166
1165	58.44714
1166	51.74498
1167	46.69924
1168	44.825
1169	40.43258
1170	41.07924
1171	54.12421
1172	72.70585
1173	87.42957
1174	93.41588
1175	92.44777
1176	83.39536
1177	73.70786
1178	59.95591
1179	42.30402
1180	26.81269
1181	16.98636
1182	16.39367
1183	25.26753
1184	40.05931
1185	55.44068
1186	69.42229
1187	78.11562
1188	80.67229
1189	76.93736
1190	78.16426
1191	82.30631
1192	73.2504
1193	57.70506
1194	57.86263
1195	72.90728
1196	86.75298
1197	100.8809
1198	121.2272
1199	137.4823
1200	145.6214
1201	147.5612
1202	156.7002
1203	166.1467
1204	174.9357
1205	179.8078
1206	179.9377
1207	180.8125
1208	186.6496
1209	199.3111
1210	217.8302
1211	235.226
1212	245.5542
1213	250.4826
1214	249.8244
1215	254.7484
1216	262.7654
1217	262.7291
1218	255.5344
1219	250.0897
1220	251.202
1221	263.4562
1222	282.3159
1223	297.3149
1224	311.4908
1225	332.5285
1226	355.1227
1227	380.1475
1228	402.6117
1229	422.0375
1230	428.6309
1231	420.2966
1232	413.2511
1233	416.3762
1234	417.3299
1235	415.5549
1236	425.0948
1237	446.6358
1238	474.3753
1239	500.0523
1240	521.0073
1241	526.6867
1242	517.8251
1243	501.9224
1244	503.7465
1245	514.4478
1246	520.4048
1247	523.5082
1248	523.3388
1249	525.6974
1250	535.3276
1251	546.5034
1252	554.8576
1253	559.2266
1254	561.0396
1255	581.4709
1256	619.0596
1257	648.4241
1258	654.9734
1259	641.7433
1260	613.0327
1261	595.6208
1262	587.5546
1263	573.5798
1264	562.2579
1265	550.3909
1266	546.8724
1267	552.8784
1268	561.598
1269	565.4697
1270	560.9917
1271	547.4081
1272	536.6773
1273	535.5128
1274	542.5152
1275	557.9252
1276	581.9519
1277	604.9352
1278	612.448
1279	609.878
1280	629.7786
1281	651.6774
1282	653.7141
1283	643.1609
1284	635.1817
1285	632.766
1286	640.3013
1287	656.7777
1288	678.0403
1289	694.7576
1290	703.2632
1291	729.9754
1292	772.8929
1293	812.8102
1294	842.6964
1295	885.3398
1296	926.1024
1297	970.3889
1298	995.6335
1299	1005.115
1300	997.0931
1301	993.1101
1302	983.6554
1303	969.8857
1304	942.2548
1305	901.34
1306	856.1417
1307	820.9979
1308	794.1077
1309	780.3732
1310	755.3596
1311	729.6839
1312	710.4507
1313	705.4147
1314	708.5185
1315	710.9094
1316	693.3414
1317	673.1724
1318	663.7117
1319	650.3051
1320	627.4089
1321	600.2468
1322	576.5117
1323	556.255
1324	546.014
1325	536.8085
1326	532.9269
1327	528.7196
1328	531.2106
1329	544.2523
1330	558.6172
1331	562.363
1332	560.8957
1333	559.5889
1334	564.1406
1335	576.0699
1336	577.0408
1337	564.4312
1338	558.5556
1339	564.7249
1340	580.3433
1341	599.7426
1342	612.8554
1343	619.4122
1344	627.4677
1345	634.3443
1346	643.5396
1347	644.2345
1348	632.6302
1349	614.9656
1350	597.2988
1351	577.7357
1352	562.2344
1353	547.8824
1354	543.6329
1355	552.0068
1356	567.4296
1357	574.0462
1358	573.3021
1359	568.7267
1360	564.5128
1361	565.7161
1362	565.7371
1363	563.7552
1364	571.4296
1365	585.541
1366	590.5275
1367	582.232
1368	569.8603
1369	548.192
1370	507.7942
1371	478.6218
1372	481.8639
1373	496.6143
1374	503.5414
1375	511.0752
1376	515.2549
1377	498.563
1378	466.3043
1379	452.1937
1380	448.086
1381	411.7814
1382	372.1453
1383	354.6014
1384	358.6143
1385	372.6475
1386	384.6306
1387	383.7484
1388	385.6086
1389	393.7701
1390	408.0551
1391	421.8218
1392	423.5212
1393	417.6681
1394	423.4941
1395	431.2171
1396	434.3481
1397	426.2552
1398	405.555
1399	394.9239
1400	403.6403
1401	407.0814
1402	403.9429
1403	406.8217
1404	415.3768
1405	429.3115
1406	436.9052
1407	425.7185
1408	415.2575
1409	422.6864
1410	439.1982
1411	458.8917
1412	474.9457
1413	483.6634
1414	495.1379
1415	508.1006
1416	527.8682
1417	545.3112
1418	553.7549
1419	564.1986
1420	587.5894
1421	615.0471
1422	638.7084
1423	659.5072
1424	676.3812
1425	709.0167
1426	756.2013
1427	823.4504
1428	895.5908
1429	963.6597
1430	1037.714
1431	1132.253
1432	1220.924
1433	1288.678
1434	1348.388
1435	1387.787
1436	1426.591
1437	1447.688
1438	1458.044
1439	1455.889
1440	1461.511
1441	1467.468
1442	1472.909
1443	1470.858
1444	1457.508
1445	1426.723
1446	1388.52
1447	1367.286
1448	1363.753
1449	1347.047
1450	1339.18
1451	1349.552
1452	1358.731
1453	1354.062
1454	1360.86
1455	1377.089
1456	1362.322
1457	1320.316
1458	1286.917
1459	1256.474
1460	1211.176
1461	1157.28
1462	1095.868
1463	1014.82
1464	926.6829
1465	852.6976
1466	810.6021
1467	753.963
1468	709.2466
1469	671.7729
1470	656.9998
1471	652.533
1472	645.2844
1473	622.3034
1474	591.8713
1475	561.0336
1476	527.2662
1477	501.4433
1478	481.596
1479	468.9496
1480	448.3607
1481	427.9299
1482	410.3484
1483	390.5853
1484	370.7917
1485	353.8861
1486	344.5477
1487	333.5927
1488	330.8746
1489	340.1517
1490	344.0006
1491	327.6669
1492	306.0813
1493	287.7538
1494	271.4469
1495	257.7875
1496	232.3211
1497	207.7246
1498	190.8346
1499	190.1844
1500	203.3643
1501	227.0959
1502	251.7354
1503	272.5889
1504	282.3167
1505	289.922
1506	294.0704
1507	307.1001
1508	307.9228
1509	285.881
1510	264.0348
1511	256.3734
1512	253.3278
1513	254.2448
1514	249.7453
1515	245.2653
1516	242.8665
1517	256.7505
1518	291.9868
1519	313.6517
1520	306.8148
1521	293.2328
1522	279.1194
1523	272.9747
1524	273.8323
1525	274.6627
1526	270.1227
1527	256.1319
1528	247.5419
1529	246.6395
1530	230.6931
1531	207.8201
1532	193.3509
1533	197.0313
1534	217.3191
1535	248.5373
1536	278.0202
1537	293.7479
1538	290.1665
1539	289.881
1540	288.2193
1541	279.7416
1542	272.4252
1543	273.258
1544	280.7924
1545	291.4149
1546	293.6688
1547	288.5363
1548	293.7575
1549	301.2366
1550	298.9336
1551	300.6084
1552	314.202
1553	324.6997
1554	325.1751
1555	321.6467
1556	308.0332
1557	273.7345
1558	244.1658
1559	242.9334
1560	242.2344
1561	230.3978
1562	234.7994
1563	257.3823
1564	281.4785
1565	298.1829
1566	304.8915
1567	296.4681
1568	277.8849
1569	252.8846
1570	231.0475
1571	212.4785
1572	208.2629
1573	217.5792
1574	231.2886
1575	232.2197
1576	229.7626
1577	226.6911
1578	216.9926
1579	204.7644
1580	194.2563
1581	196.8574
1582	217.6055
1583	244.3665
1584	265.0388
1585	280.3972
1586	286.3622
1587	293.1231
1588	294.0486
1589	287.1079
1590	282.5164
1591	288.9659
1592	295.6696
1593	298.8322
1594	301.9
1595	306.4787
1596	317.9961
1597	329.773
1598	336.7521
1599	340.1081
1600	338.9423
1601	333.8286
1602	322.9305
1603	304.733
1604	283.4063
1605	263.389
1606	251.6959
1607	251.2893
1608	250.2625
1609	250.0296
1610	253.9189
1611	259.526
1612	262.4918
1613	266.3316
1614	271.6047
1615	273.4648
1616	272.4265
1617	276.074
1618	280.888
1619	282.9202
1620	287.1427
1621	293.364
1622	283.028
1623	257.0851
1624	230.4016
1625	212.8411
1626	206.376
1627	204.3505
1628	200.4635
1629	199.1266
1630	205.0838
1631	229.2114
1632	249.0496
1633	240.1999
1634	226.3607
1635	224.6502
1636	236.1149
1637	258.4235
1638	281.6338
1639	301.3533
1640	319.5295
1641	329.0633
1642	326.7693
1643	300.9449
1644	260.126
1645	224.2815
1646	202.1671
1647	191.2861
1648	186.6421
1649	184.935
1650	199.3536
1651	222.8381
1652	232.1062
1653	234.5932
1654	242.4487
1655	251.1533
1656	259.794
1657	276.6146
1658	291.7057
1659	293.306
1660	290.0761
1661	295.189
1662	290.674
1663	276.0316
1664	268.5177
1665	269.5484
1666	271.6633
1667	271.329
1668	264.6977
1669	259.6151
1670	260.0582
1671	267.0986
1672	272.3588
1673	263.4459
1674	257.3295
1675	263.3376
1676	268.3766
1677	266.2222
1678	251.8236
1679	228.5032
1680	203.475
1681	191.5231
1682	198.1992
1683	201.1508
1684	206.5407
1685	230.9523
1686	255.0276
1687	262.8459
1688	268.4268
1689	270.5209
1690	258.3055
1691	241.7477
1692	238.2872
1693	241.8738
1694	247.6951
1695	258.5084
1696	266.2112
1697	255.3795
1698	242.7853
1699	248.8749
1700	258.7693
1701	265.8721
1702	272.4903
1703	278.8502
1704	290.9922
1705	300.9984
1706	303.3505
1707	290.2602
1708	266.7627
1709	252.4905
1710	246.9728
1711	240.8655
1712	247.3766
1713	266.761
1714	282.3072
1715	292.9578
1716	314.6418
1717	328.2506
1718	324.0869
1719	313.919
1720	300.6819
1721	280.9667
1722	264.5234
1723	259.1186
1724	250.5072
1725	232.9754
1726	215.5013
1727	201.3179
1728	183.773
1729	175.391
1730	180.2396
1731	189.9639
1732	201.9107
1733	221.0405
1734	235.5143
1735	238.2184
1736	225.9013
1737	205.2732
1738	202.7503
1739	212.6142
1740	211.2434
1741	211.5305
1742	218.3078
1743	228.1126
1744	231.6146
1745	215.9616
1746	193.4029
1747	180.9104
1748	181.6984
1749	194.1645
1750	202.9972
1751	201.3221
1752	185.6001
1753	173.7881
1754	174.1658
1755	167.9744
1756	159.7448
1757	160.324
1758	150.1328
1759	121.2474
1760	104.7238
1761	101.5248
1762	77.73306
1763	61.42536
1764	70.85127
1765	94.18562
1766	122.9539
1767	155.1148
1768	176.6969
1769	182.7379
1770	189.3772
1771	200.6678
1772	195.5758
1773	180.3479
1774	172.5353
1775	172.6496
1776	178.3966
1777	169.2563
1778	150.5546
1779	142.1971
1780	133.1593
1781	115.7447
1782	86.63758
1783	62.37604
1784	66.48381
1785	89.34451
1786	109.0623
1787	128.9117
1788	147.3998
1789	180.8162
1790	205.9303
1791	206.6952
1792	195.2933
1793	181.5376
1794	177.9067
1795	172.3118
1796	144.3971
1797	124.6619
1798	125.442
1799	125.8638
1800	129.1439
1801	136.5151
1802	144.4094
1803	148.1709
1804	141.6141
1805	127.6406
1806	116.691
1807	101.5847
1808	81.58103
1809	66.9442
1810	65.11471
1811	72.14401
1812	88.50925
1813	106.5342
1814	111.4332
1815	105.5314
1816	114.2503
1817	115.0711
1818	98.88969
1819	102.6171
1820	124.4538
1821	131.8122
1822	138.8593
1823	155.093
1824	162.0292
1825	158.5037
1826	163.2888
1827	164.5126
1828	156.3151
1829	154.1779
1830	160.4377
1831	166.507
1832	170.4173
1833	169.976
1834	159.2083
1835	144.6631
1836	145.7677
1837	147.2635
1838	134.4409
1839	127.0029
1840	128.2146
1841	128.0766
1842	122.8778
1843	109.4746
1844	90.89912
1845	78.65163
1846	86.67138
1847	103.3907
1848	111.6793
1849	130.0857
1850	149.3298
1851	150.1301
1852	136.5667
1853	121.1873
1854	108.3386
1855	109.8948
1856	136.9499
1857	165.7781
1858	171.5103
1859	170.3409
1860	163.3681
1861	156.7399
1862	145.7251
1863	129.9148
1864	112.2271
1865	102.3634
1866	107.1826
1867	113.6007
1868	111.6584
1869	121.1469
1870	139.1852
1871	157.4202
1872	167.4946
1873	163.8246
1874	143.8152
1875	122.935
1876	124.6997
1877	124.9563
1878	116.0251
1879	120.1247
1880	132.3458
1881	139.9032
1882	145.4613
1883	148.8675
1884	153.0693
1885	157.3088
1886	162.52
1887	163.3121
1888	158.142
1889	150.3533
1890	140.7854
1891	131.6711
1892	124.7234
1893	123.4547
1894	129.4409
1895	130.9609
1896	120.6972
1897	124.512
1898	136.3264
1899	133.1427
1900	130.0935
1901	134.0962
1902	131.0603
1903	126.0826
1904	129.0653
1905	136.4504
1906	143.4813
1907	143.1176
1908	137.6327
1909	133.713
1910	147.0921
1911	172.7253
1912	182.6704
1913	183.7077
1914	186.5791
1915	182.514
1916	170.6993
1917	154.8059
1918	135.7935
1919	118.0793
1920	105.1656
1921	99.34818
1922	92.53308
1923	96.38027
1924	108.9542
1925	106.9676
1926	108.2825
1927	132.976
1928	167.6822
1929	193.4372
1930	199.216
1931	185.1763
1932	166.3509
1933	157.2345
1934	147.6488
1935	105.0996
1936	74.09239
1937	80.07628
1938	105.4127
1939	130.7726
1940	126.8119
1941	119.3886
1942	117.9268
1943	122.4968
1944	120.2311
1945	103.0598
1946	86.01015
1947	78.2413
1948	79.55204
1949	87.94714
1950	98.5013
1951	115.9405
1952	131.2109
1953	136.7548
1954	133.5953
1955	120.5547
1956	95.81665
1957	74.83602
1958	72.07501
1959	84.32813
1960	105.8006
1961	123.488
1962	134.5865
1963	135.4037
1964	129.4099
1965	115.3174
1966	98.42894
1967	88.00256
1968	86.34116
1969	77.13479
1970	81.11154
1971	101.3894
1972	103.6043
1973	99.7879
1974	115.414
1975	128.2148
1976	131.6451
1977	137.1759
1978	143.6895
1979	151.2737
1980	155.131
1981	146.9529
1982	121.389
1983	108.5908
1984	118.6112
1985	122.99
1986	125.253
1987	127.409
1988	136.0105
1989	140.4404
1990	123.0737
1991	102.5102
1992	94.81194
1993	105.469
1994	120.0823
1995	118.2044
1996	117.8382
1997	121.8393
1998	129.0163
1999	136.2392
2000	139.4507
2001	134.349
2002	125.0239
2003	118.9542
2004	101.0758
2005	80.3521
2006	75.93751
2007	89.12852
2008	110.0682
2009	117.0813
2010	114.2224
2011	114.5935
2012	113.5327
2013	109.1532
2014	98.45774
2015	89.03366
2016	90.00828
2017	119.7931
2018	141.3361
2019	118.5893
2020	110.558
2021	118.6109
2022	111.6326
2023	104.697
2024	103.8035
2025	101.1831
2026	104.6759
2027	116.3129
2028	97.82595
2029	63.93718
2030	57.66411
2031	50.7514
2032	42.50904
2033	63.86409
2034	97.69213
2035	121.7969
2036	155.356
2037	176.6667
2038	167.1261
2039	144.3392
2040	122.8237
2041	107.073
2042	100.0485
2043	100.1062
2044	103.5849
2045	118.5519
2046	148.1921
2047	161.0577
2048	151.0517
2049	140.3221
2050	141.507
2051	156.9295
2052	158.9821
2053	154.3118
2054	151.1866
2055	130.3436
2056	98.57246
2057	70.5817
2058	59.94327
2059	67.74414
2060	67.37112
2061	78.29076
2062	103.9199
2063	128.1547
2064	143.3214
2065	149.9736
2066	147.5179
2067	141.3009
2068	144.4575
2069	143.948
2070	137.152
2071	133.8684
2072	130.8479
2073	125.1066
2074	112.1482
2075	95.68021
2076	80.34695
2077	73.19599
2078	82.17604
2079	109.7143
2080	127.029
2081	119.6728
2082	105.083
2083	91.43532
2084	89.64892
2085	97.75851
2086	119.9521
2087	152.3708
2088	185.3327
2089	204.3894
2090	210.563
2091	192.7948
2092	163.5938
2093	156.6257
2094	147.4368
2095	123.3005
2096	124.1182
2097	134.886
2098	129.7485
2099	133.2825
2100	142.9104
2101	146.8435
2102	145.4599
2103	137.5254
2104	121.9799
2105	110.3137
2106	108.3922
2107	99.12019
2108	102.4235
2109	127.3329
2110	142.6296
2111	139.7394
2112	124.0371
2113	118.8702
2114	126.4612
2115	128.2218
2116	133.9716
2117	144.929
2118	161.3488
2119	163.9526
2120	146.8918
2121	131.11
2122	123.4725
2123	127.6044
2124	139.9669
2125	155.8705
2126	167.3992
2127	174.8533
2128	174.8096
2129	168.4449
2130	166.838
2131	170.745
2132	161.9615
2133	154.9313
2134	156.85
2135	156.1198
2136	153.3337
2137	147.8488
2138	127.8575
2139	107.4517
2140	103.9865
2141	105.2861
2142	112.9073
2143	128.5204
2144	144.6919
2145	151.4998
2146	146.9649
2147	124.8362
2148	98.41665
2149	94.92631
2150	105.3744
2151	116.5495
2152	130.6376
2153	138.6212
2154	135.4828
2155	125.8819
2156	116.4602
2157	115.8674
2158	133.3725
2159	157.2871
2160	165.3884
2161	170.7117
2162	171.19
2163	162.4319
2164	142.8104
2165	122.2642
2166	112.9323
2167	121.0232
2168	141.7905
2169	162.9736
2170	177.0318
2171	180.5338
2172	186.8874
2173	184.0711
2174	167.6889
2175	157.1845
2176	156.1527
2177	159.8372
2178	162.4382
2179	157.2612
2180	140.1467
2181	145.2742
2182	166.3073
2183	169.1353
2184	180.554
2185	198.4032
2186	204.1452
2187	200.669
2188	189.475
2189	165.8617
2190	156.5151
2191	167.5624
2192	160.4204
2193	155.0048
2194	160.995
2195	160.2471
2196	160.1671
2197	164.0163
2198	152.6241
2199	141.8371
2200	147.3804
2201	141.5669
2202	139.7177
2203	158.2046
2204	170.4519
2205	176.4155
2206	185.9509
2207	185.0397
2208	179.3922
2209	185.0482
2210	172.7344
2211	151.4427
2212	150.8789
2213	160.5081
2214	173.4903
2215	182.9496
2216	187.0032
2217	187.3314
2218	195.5779
2219	189.3654
2220	167.6104
2221	150.5221
2222	147.5517
2223	156.7747
2224	155.3785
2225	147.9995
2226	143.3413
2227	157.1869
2228	178.6169
2229	196.0942
2230	217.2126
2231	228.9766
2232	225.6817
2233	215.0821
2234	194.5918
2235	172.6639
2236	166.924
2237	173.7424
2238	180.6137
2239	181.0186
2240	171.6766
2241	155.788
2242	143.2352
2243	134.7921
2244	128.8315
2245	128.6413
2246	146.2636
2247	180.6877
2248	201.2548
2249	206.1647
2250	206.3978
2251	204.2476
2252	194.0371
2253	174.5714
2254	148.3292
2255	133.6333
2256	140.8276
2257	146.2562
2258	152.1474
2259	161.2
2260	170.3296
2261	173.375
2262	168.3661
2263	162.216
2264	159.8623
2265	163.835
2266	168.4075
2267	170.8804
2268	169.0932
2269	157.2666
2270	146.4313
2271	149.903
2272	160.1809
2273	179.284
2274	203.2076
2275	223.0583
2276	223.6276
2277	202.9963
2278	180.8371
2279	170.0429
2280	175.8605
2281	181.005
2282	184.1476
2283	186.0185
2284	197.9053
2285	205.1547
2286	196.0682
2287	182.8983
2288	172.3828
2289	168.7797
2290	157.4911
2291	151.7279
2292	160.1321
2293	174.5179
2294	187.7438
2295	191.7915
2296	189.1879
2297	175.7755
2298	158.2922
2299	147.3504
2300	163.8631
2301	199.371
2302	207.217
2303	207.4203
2304	208.9691
2305	199.1106
2306	178.7218
2307	162.7794
2308	175.0831
2309	188.482
2310	187.2636
2311	175.4839
2312	173.2422
2313	176.3529
2314	156.0941
2315	157.8878
2316	183.2451
2317	201.5785
2318	197.6749
2319	186.3972
2320	201.4442
2321	211.0419
2322	215.6897
2323	224.7392
2324	228.9368
2325	228.1738
2326	225.9678
2327	219.9811
2328	202.7504
2329	174.3084
2330	159.1321
2331	141.5959
2332	110.8889
2333	84.24527
2334	86.5351
2335	120.2477
2336	158.1475
2337	173.6122
2338	167.2929
2339	195.5128
2340	195.0965
2341	165.7258
2342	169.7974
2343	173.2405
2344	178.4151
2345	204.7051
2346	218.5712
2347	213.8056
2348	204.6237
2349	198.8922
2350	197.9664
2351	198.0494
2352	195.8996
2353	198.212
2354	205.6442
2355	192.4553
2356	167.8052
2357	147.6083
2358	137.4433
2359	133.0396
2360	134.9256
2361	157.5473
2362	172.7074
2363	171.2271
2364	171.8337
2365	181.2446
2366	192.8242
2367	192.5172
2368	193.0103
2369	202.884
2370	223.092
2371	219.3321
2372	207.9554
2373	211.0221
2374	208.1905
2375	199.8528
2376	186.1413
2377	158.5891
2378	151.6919
2379	168.2102
2380	165.3848
2381	169.5142
2382	175.4877
2383	162.3088
2384	155.9994
2385	149.6283
2386	128.4322
2387	123.4958
2388	129.8585
2389	133.7205
2390	135.0008
2391	141.973
2392	157.7958
2393	176.102
2394	189.1955
2395	192.4858
2396	190.5586
2397	185.5207
2398	174.3417
2399	153.0012
2400	153.9357
2401	173.8333
2402	189.4291
2403	188.2516
2404	183.5704
2405	184.1762
2406	163.4468
2407	138.1547
2408	124.2915
2409	120.1234
2410	131.5966
2411	144.8907
2412	138.0199
2413	136.2577
2414	122.0125
2415	83.7858
2416	73.09626
2417	88.36613
2418	113.5623
2419	143.1894
2420	161.2426
2421	166.6272
2422	180.1616
2423	171.722
2424	144.2517
2425	120.9168
2426	119.6614
2427	128.8622
2428	128.6955
2429	127.1123
2430	132.1847
2431	142.2158
2432	140.7756
2433	124.4934
2434	106.4787
2435	108.0586
2436	128.6822
2437	155.5182
2438	168.7436
2439	172.8962
2440	168.8625
2441	159.8198
2442	139.3048
2443	120.5702
2444	122.419
2445	154.2476
2446	171.6672
2447	179.4783
2448	198.438
2449	205.7787
2450	194.9206
2451	172.448
2452	152.8223
2453	139.4241
2454	138.2634
2455	150.6185
2456	169.5674
2457	181.7375
2458	177.1553
2459	164.4347
2460	143.212
2461	123.5767
2462	114.6131
2463	130.815
2464	158.4028
2465	165.7739
2466	170.2883
2467	178.5868
2468	191.3911
2469	186.6143
2470	187.1884
2471	201.2472
2472	208.1183
2473	181.984
2474	147.3433
2475	150.8076
2476	163.7365
2477	173.6936
2478	173.6927
2479	184.7355
2480	179.8858
2481	155.1053
2482	130.4259
2483	109.8291
2484	101.7745
2485	106.4626
2486	118.8194
2487	138.2944
2488	149.5206
2489	129.9734
2490	133.1831
2491	153.3591
2492	154.0776
2493	152.4379
2494	147.7173
2495	147.008
2496	170.7303
2497	161.6049
2498	132.578
2499	144.1348
2500	149.548
2501	144.3274
2502	138.383
2503	157.8552
2504	177.0934
2505	179.25
2506	168.9774
2507	181.5618
2508	190.0939
2509	170.0754
2510	171.9544
2511	181.4583
2512	179.9534
2513	153.5957
2514	140.6543
2515	146.7679
2516	157.953
2517	152.4133
2518	155.2993
2519	174.0015
2520	187.7412
2521	184.2634
2522	173.4788
2523	174.5038
2524	180.894
2525	181.6618
2526	176.5064
2527	180.6346
2528	188.4928
2529	187.4226
2530	173.5886
2531	179.8535
2532	196.4101
2533	208.4859
2534	207.5546
2535	183.406
2536	165.5372
2537	177.7768
2538	173.782
2539	158.5264
2540	139.1885
2541	123.6326
2542	119.7356
2543	131.3961
2544	151.8434
2545	174.0368
2546	186.6748
2547	183.3226
2548	169.2212
2549	165.5877
2550	169.721
2551	171.8822
2552	168.8903
2553	145.2762
2554	121.7453
2555	129.4936
2556	132.6373
2557	163.5324
2558	209.0659
2559	199.8351
2560	192.3596
2561	189.9372
2562	180.8427
2563	173.5023
2564	160.3837
2565	148.6653
2566	153.4509
2567	114.3137
2568	81.36069
2569	93.23994
2570	83.04476
2571	88.41732
2572	112.8754
2573	137.7305
2574	156.323
2575	158.8199
2576	149.7553
2577	146.831
2578	139.7023
2579	134.1571
2580	138.5838
2581	153.602
2582	165.0778
2583	167.8971
2584	169.3639
2585	165.9297
2586	156.3439
2587	143.2164
2588	130.9268
2589	123.3869
2590	115.0326
2591	106.1724
2592	128.5479
2593	162.8517
2594	188.6287
2595	197.316
2596	189.874
2597	185.7666
2598	191.4566
2599	180.6324
2600	195.3204
2601	215.0505
2602	207.8467
2603	185.9295
2604	151.7189
2605	136.505
2606	164.4243
2607	187.6215
2608	206.9047
2609	214.2688
2610	199.1393
2611	190.1181
2612	178.6634
2613	163.6867
2614	172.017
2615	184.4532
2616	185.6939
2617	169.9709
2618	148.3383
2619	134.0728
2620	120.5957
2621	91.80386
2622	84.19311
2623	93.68207
2624	111.0888
2625	132.31
2626	141.9349
2627	161.4611
2628	193.0102
2629	187.9653
2630	178.5667
2631	169.5262
2632	159.8711
2633	158.861
2634	158.8862
2635	165.9757
2636	185.0389
2637	183.1615
2638	181.6244
2639	188.1972
2640	191.7066
2641	187.3032
2642	179.706
2643	165.825
2644	132.3002
2645	106.9836
2646	93.1115
2647	89.2951
2648	99.13068
2649	93.29099
2650	81.91876
2651	87.53278
2652	114.2566
2653	144.1162
2654	160.4281
2655	158.3585
2656	153.2398
2657	137.5821
2658	106.8208
2659	69.5174
2660	72.12712
2661	95.27824
2662	121.8571
2663	143.3218
2664	137.906
2665	126.4399
2666	113.394
2667	82.08065
2668	60.92428
2669	69.40446
2670	98.60834
2671	115.283
2672	96.29375
2673	84.32384
2674	101.976
2675	112.4999
2676	118.2371
2677	123.6228
2678	131.9833
2679	139.1865
2680	125.8937
2681	130.5792
2682	170.4239
2683	196.6117
2684	208.4819
2685	190.9142
2686	152.0298
2687	127.89
2688	109.0853
2689	108.5611
2690	127.8107
2691	146.0203
2692	152.5039
2693	142.0615
2694	122.5795
2695	107.6156
2696	113.0203
2697	134.2478
2698	151.2833
2699	149.0106
2700	148.3309
2701	153.3057
2702	158.1682
2703	153.5416
2704	149.7824
2705	149.4306
2706	145.4868
2707	123.3688
2708	115.6757
2709	126.8661
2710	144.6214
2711	154.9304
2712	158.7744
2713	158.0935
2714	155.0036
2715	146.5285
2716	129.3748
2717	108.8717
2718	100.025
2719	117.9784
2720	121.7231
2721	127.0793
2722	153.8845
2723	197.5713
2724	218.3022
2725	208.4203
2726	197.3942
2727	221.3102
2728	199.8231
2729	170.81
2730	173.8503
2731	205.3981
2732	207.0582
2733	201.0175
2734	207.7569
2735	222.7515
2736	201.9459
2737	193.4885
2738	202.2006
2739	198.208
2740	176.3526
2741	178.53
2742	185.4967
2743	164.7381
2744	144.4822
2745	144.2693
2746	142.0139
2747	126.1203
2748	138.4229
2749	166.9219
2750	178.7434
2751	163.9915
2752	157.7912
2753	145.8759
2754	130.7182
2755	121.656
2756	125.8365
2757	123.1773
2758	124.6265
2759	136.6422
2760	152.8993
2761	153.6049
2762	162.9588
2763	166.5213
2764	149.11
2765	146.46
2766	150.7719
2767	170.331
2768	194.9733
2769	190.494
2770	185.074
2771	168.8137
2772	153.0697
2773	164.4432
2774	160.5142
2775	155.2745
2776	149.9897
2777	137.0169
2778	116.8996
2779	112.1883
2780	124.9166
2781	140.5353
2782	145.1587
2783	128.731
2784	121.6945
2785	127.1884
2786	107.9702
2787	100.5151
2788	94.03926
2789	93.74606
2790	110.5315
2791	127.1611
2792	156.7
2793	177.0208
2794	167.9597
2795	145.8325
2796	116.809
2797	95.06127
2798	88.53249
2799	95.66405
2800	131.2565
2801	162.7319
2802	171.6138
2803	164.421
2804	156.1897
2805	128.693
2806	103.4784
2807	98.20699
2808	100.3974
2809	95.42721
2810	104.7455
2811	126.0252
2812	131.5281
2813	102.5438
2814	104.4751
2815	112.9349
2816	104.3225
2817	128.6383
2818	170.149
2819	183.1617
2820	150.7563
2821	107.5133
2822	102.249
2823	109.9016
2824	116.1019
2825	127.2012
2826	165.338
2827	173.1582
2828	174.9188
2829	186.2772
2830	198.2213
2831	217.3045
2832	199.3583
2833	179.466
2834	185.6257
2835	177.6104
2836	183.5544
2837	210.7771
2838	243.6188
2839	262.9774
2840	288.8407
2841	299.269
2842	306.1229
2843	322.9753
2844	345.3528
2845	385.3733
2846	416.2256
2847	442.2254
2848	472.8295
2849	480.8608
2850	477.8477
2851	471.1566
2852	461.462
2853	442.4081
2854	419.5985
2855	405.1924
2856	417.8181
2857	445.3486
2858	443.1779
2859	443.8383
2860	445.9166
2861	433.5786
2862	403.1583
2863	393.3839
2864	403.6454
2865	419.8155
2866	439.6005
2867	473.3557
2868	512.4037
2869	521.704
2870	521.413
2871	532.2236
2872	538.2806
2873	538.9905
2874	531.8508
2875	515.6641
2876	492.8281
2877	468.9908
2878	437.916
2879	425.1756
2880	429.5879
2881	430.6171
2882	430.7079
2883	448.8004
2884	471.911
2885	486.8643
2886	495.2079
2887	508.5166
2888	510.9728
2889	513.215
2890	523.4879
2891	533.7026
2892	540.6145
2893	533.8956
2894	526.5204
2895	517.824
2896	485.5052
2897	468.2251
2898	460.2314
2899	455.6213
2900	447.3024
2901	432.8821
2902	438.5957
2903	428.7963
2904	423.5075
2905	447.5017
2906	468.4823
2907	476.6542
2908	474.5335
2909	460.9452
2910	434.2751
2911	404.8374
2912	411.0507
2913	432.9431
2914	450.6185
2915	455.2439
2916	445.5589
2917	453.2373
2918	453.8033
2919	443.9661
2920	440.368
2921	448.6037
2922	438.2716
2923	421.5534
2924	410.7693
2925	406.2157
2926	396.4673
2927	373.131
2928	367.9549
2929	372.3392
2930	370.6525
2931	383.2238
2932	376.2508
2933	379.4351
2934	390.3119
2935	399.4321
2936	416.1362
2937	402.3953
2938	385.7422
2939	354.3385
2940	307.3279
2941	284.438
2942	287.1403
2943	303.3448
2944	324.1394
2945	339.5263
2946	340.8268
2947	336.8022
2948	318.365
2949	302.7563
2950	281.053
2951	246.6244
2952	270.2031
2953	280.2455
2954	288.3572
2955	303.5361
2956	313.9236
2957	306.9715
2958	271.2014
2959	264.1745
2960	278.6777
2961	275.6232
2962	260.287
2963	251.914
2964	236.5406
2965	203.454
2966	172.6877
2967	173.1068
2968	170.5428
2969	182.4969
2970	196.3075
2971	210.9015
2972	226.865
2973	214.6546
2974	211.7068
2975	190.6255
2976	166.2432
2977	156.4772
2978	140.6629
2979	148.4847
2980	153.9324
2981	171.3391
2982	194.9207
2983	194.1433
2984	189.9452
2985	183.3194
2986	183.2499
2987	180.6563
2988	174.1699
2989	187.556
2990	163.2488
2991	149.2634
2992	150.2013
2993	152.1165
2994	150.2317
2995	137.2284
2996	133.5278
2997	116.2131
2998	95.79009
2999	95.36086
3000	102.4189
3001	142.8048
3002	167.3405
3003	177.1717
3004	174.8419
3005	152.6957
3006	139.5406
3007	131.6294
3008	141.965
3009	142.5283
3010	131.5052
3011	153.6801
3012	144.6746
3013	143.5325
3014	149.4859
3015	156.6906
3016	153.118
3017	118.9861
3018	110.2989
3019	94.80829
3020	78.12678
3021	72.09671
3022	74.29103
3023	88.75578
3024	81.83916
3025	78.34688
3026	101.5048
3027	141.9101
3028	164.7024
3029	158.2893
3030	148.1007
3031	122.4698
3032	89.57488
3033	75.81561
3034	90.95559
3035	99.88729
3036	106.1514
3037	120.2925
3038	138.8204
3039	146.4621
3040	140.7083
3041	147.6116
3042	142.1341
3043	137.7176
3044	137.8351
3045	141.0996
3046	160.9016
3047	167.1029
3048	169.7831
3049	150.6215
3050	136.4433
3051	152.5936
3052	152.759
3053	152.3612
3054	170.4745
3055	167.1398
3056	137.4424
3057	112.7231
3058	94.39565
3059	77.59963
3060	73.96104
3061	101.6793
3062	119.9942
3063	109.6782
3064	127.7864
3065	108.6388
3066	106.0845
3067	122.8603
3068	150.201
3069	160.9409
3070	133.7213
3071	131.4671
3072	117.0882
3073	125.1197
3074	149.2014
3075	157.5314
3076	140.0614
3077	105.9043
3078	78.84735
3079	53.97424
3080	41.17375
3081	52.75896
3082	74.90604
3083	73.92464
3084	106.2154
3085	139.7787
3086	154.0075
3087	147.4581
3088	125.2618
3089	88.70753
3090	61.85908
3091	98.7458
3092	142.0572
3093	180.4962
3094	218.2429
3095	223.5539
3096	194.4059
3097	159.6388
3098	158.6364
3099	161.3331
3100	159.6091
3101	167.0775
3102	157.4001
3103	140.5016
3104	143.8016
3105	157.5792
3106	154.3094
3107	139.5651
3108	141.0668
3109	139.9534
3110	140.2112
3111	161.7762
3112	173.0159
3113	153.0775
3114	126.7177
3115	123.3159
3116	121.1793
3117	105.5085
3118	75.59373
3119	64.25464
3120	72.71675
3121	82.53439
3122	112.8786
3123	147.7204
3124	146.2177
3125	130.3605
3126	121.2519
3127	104.376
3128	80.69914
3129	106.1744
3130	116.4108
3131	140.1732
3132	155.1011
3133	150.3492
3134	126.8573
3135	104.3543
3136	123.8197
3137	104.8614
3138	119.0908
3139	122.8447
3140	110.1752
3141	102.107
3142	109.098
3143	150.0857
3144	155.7936
3145	166.0189
3146	155.4247
3147	134.1475
3148	117.9388
3149	109.2427
3150	130.0912
3151	150.3345
3152	155.8155
3153	170.0082
3154	180.976
3155	170.0611
3156	149.3229
3157	140.9811
3158	145.3924
3159	135.6407
3160	153.2789
3161	159.0919
3162	133.2082
3163	106.2283
3164	93.62814
3165	97.57608
3166	120.4518
3167	146.4043
3168	157.8189
3169	147.0511
3170	123.5347
3171	106.4624
3172	101.7736
3173	102.5149
3174	114.5393
3175	141.8364
3176	170.5917
3177	188.9895
3178	199.369
3179	197.8594
3180	161.3955
3181	157.8001
3182	155.1137
3183	169.9394
3184	192.6337
3185	199.944
3186	190.261
3187	172.5988
3188	167.7839
3189	136.9487
3190	127.6751
3191	134.6869
3192	141.1713
3193	153.3927
3194	179.1841
3195	189.3431
3196	143.1224
3197	123.3984
3198	102.5822
3199	103.2745
3200	128.2117
