RamanShift	Intensity
190	3755.69
191	3729.922
192	3688.553
193	3647.45
194	3606.466
195	3577.59
196	3559.546
197	3555.686
198	3554.858
199	3536.893
200	3516.216
201	3498.966
202	3487.129
203	3467.744
204	3438.708
205	3399.469
206	3344.15
207	3286.785
208	3227.379
209	3183.895
210	3150.973
211	3132.384
212	3127.396
213	3117.021
214	3108.026
215	3088.231
216	3060.09
217	3026.843
218	2990.967
219	2954.525
220	2907.337
221	2867.015
222	2829.389
223	2804.819
224	2780.205
225	2752.319
226	2725.9
227	2690.77
228	2658.024
229	2620.45
230	2586.555
231	2548.002
232	2505.412
233	2466.365
234	2419.423
235	2383.37
236	2350.988
237	2330.142
238	2304.458
239	2268.907
240	2228.882
241	2173.879
242	2123.978
243	2078.196
244	2048.362
245	2017.837
246	1983.561
247	1954.173
248	1918.339
249	1894.255
250	1879.255
251	1876.812
252	1865.64
253	1838.813
254	1805.714
255	1767.537
256	1734.192
257	1703.477
258	1682.552
259	1657.516
260	1627.575
261	1601.035
262	1578.033
263	1560.476
264	1534.647
265	1505.112
266	1465.575
267	1419.394
268	1372.161
269	1323.739
270	1284.816
271	1243.54
272	1214.374
273	1184.926
274	1160.52
275	1139.821
276	1118.555
277	1105.578
278	1093.719
279	1090.218
280	1089.194
281	1089.84
282	1081.924
283	1060.516
284	1032.025
285	1001.366
286	971.9692
287	934.6503
288	896.0682
289	853.6751
290	808.9952
291	778.8421
292	768.7542
293	773.0157
294	754.8619
295	724.0552
296	696.0358
297	680.4237
298	669.2639
299	655.1009
300	644.4084
301	630.7859
302	620.8341
303	615.5844
304	616.8554
305	620.5135
306	624.1885
307	619.8845
308	595.6235
309	564.8595
310	546.7641
311	545.524
312	538.6021
313	518.3666
314	495.0445
315	473.687
316	455.8566
317	434.6545
318	416.0874
319	393.6522
320	370.823
321	349.7827
322	328.8792
323	318.3348
324	317.1984
325	323.5409
326	317.2273
327	296.812
328	273.0118
329	252.5827
330	236.3089
331	220.4133
332	212.0527
333	202.6706
334	196.9169
335	193.2735
336	192.1969
337	194.9545
338	202.6712
339	206.1615
340	192.8868
341	170.7688
342	159.662
343	163.9333
344	168.0514
345	164.8843
346	157.343
347	147.4311
348	133.3083
349	112.0517
350	87.87637
351	61.87469
352	39.45937
353	20.40318
354	0.3470469
355	-4.863626
356	7.249681
357	33.73981
358	52.70176
359	60.83736
360	75.43142
361	101.6427
362	119.5516
363	118.211
364	104.6712
365	100.5009
366	101.7043
367	100.5343
368	96.05775
369	89.35432
370	80.72044
371	73.77581
372	70.27432
373	70.42502
374	69.02487
375	66.73766
376	63.84672
377	60.50873
378	54.04569
379	41.28908
380	31.50745
381	32.03717
382	40.89139
383	46.22801
384	47.62456
385	51.22854
386	58.51311
387	63.82229
388	61.05728
389	61.06232
390	81.62132
391	109.2659
392	119.5994
393	106.4969
394	93.11972
395	90.82459
396	86.80151
397	72.95383
398	54.93995
399	31.558
400	12.03283
401	1.805737
402	7.235045
403	24.4436
404	49.76639
405	76.84322
406	101.1654
407	117.2792
408	132.8332
409	140.4035
410	144.099
411	142.1956
412	134.9572
413	124.0541
414	113.8265
415	108.2788
416	107.223
417	103.0114
418	99.31982
419	100.4428
420	107.6898
421	116.9921
422	125.1857
423	134.8107
424	151.6542
425	166.5488
426	178.9606
427	181.5301
428	174.2093
429	156.4933
430	132.1754
431	107.1923
432	88.07207
433	76.43167
434	77.14365
435	77.86697
436	83.97636
437	97.7899
438	117.0025
439	135.8911
440	148.9679
441	154.232
442	157.0184
443	151.507
444	139.2975
445	125.6702
446	122.8613
447	133.6928
448	146.309
449	154.0852
450	158.0395
451	157.9321
452	155.0689
453	156.653
454	159.5296
455	158.4374
456	154.0569
457	153.3622
458	158.9216
459	165.5483
460	170.0192
461	170.6264
462	169.2849
463	161.6302
464	144.6295
465	122.0524
466	101.8063
467	90.22611
468	84.31254
469	81.14517
470	85.87604
471	93.47587
472	107.6312
473	130.4437
474	153.5272
475	165.7908
476	162.771
477	160.735
478	168.1079
479	177.253
480	184.5414
481	191.8393
482	205.7431
483	218.4776
484	222.942
485	217.9702
486	217.0497
487	224.2145
488	229.6186
489	228.1026
490	223.0126
491	220.1868
492	215.7816
493	204.91
494	191.7165
495	181.7353
496	177.7923
497	173.3656
498	166.0591
499	158.8515
500	150.147
501	146.8503
502	151.8041
503	163.5959
504	175.4758
505	183.6908
506	185.0903
507	178.0978
508	173.524
509	179.3597
510	184.4735
511	180.2543
512	170.7779
513	162.7088
514	155.7382
515	144.5723
516	134.0194
517	137.0368
518	156.8734
519	171.5119
520	164.5848
521	150.5869
522	146.5577
523	144.7642
524	136.0371
525	125.4134
526	119.1494
527	119.9921
528	121.0838
529	120.345
530	129.001
531	153.9745
532	180.3311
533	197.2574
534	203.6462
535	213.8358
536	221.3133
537	226.2453
538	225.9424
539	219.286
540	206.4532
541	190.6983
542	174.6943
543	162.2244
544	149.0339
545	143.9879
546	145.3953
547	153.9929
548	161.7618
549	165.8789
550	167.8456
551	166.9315
552	160.6382
553	148.9857
554	133.6235
555	116.302
556	98.52547
557	73.34867
558	50.9335
559	37.85341
560	39.03964
561	41.64098
562	42.35247
563	48.13399
564	60.65234
565	74.761
566	85.36051
567	93.99799
568	109.4966
569	122.4006
570	126.962
571	121.302
572	115.9261
573	113.442
574	111.0903
575	108.8541
576	102.404
577	87.52895
578	72.30017
579	59.6851
580	57.02543
581	67.20804
582	86.06371
583	93.35878
584	86.63377
585	86.15221
586	97.95824
587	109.2441
588	114.3616
589	112.1324
590	104.3407
591	92.21844
592	81.01981
593	73.21207
594	66.93909
595	64.88857
596	64.15993
597	65.16918
598	69.15927
599	75.78136
600	81.62792
601	84.5674
602	82.64258
603	76.2635
604	67.36974
605	60.45606
606	57.15062
607	53.90176
608	53.71522
609	61.32775
610	76.98219
611	90.30524
612	95.46526
613	96.11397
614	96.24712
615	95.56535
616	97.72421
617	102.0746
618	109.7856
619	116.8311
620	116.883
621	110.5056
622	110.5189
623	118.9178
624	121.7077
625	112.7923
626	96.88086
627	78.13793
628	64.3057
629	60.50135
630	65.47407
631	64.63696
632	62.87701
633	64.17442
634	69.20319
635	77.97047
636	88.81615
637	95.4526
638	94.78964
639	95.77328
640	105.72
641	113.6275
642	110.4263
643	104.7591
644	108.8838
645	120.203
646	136.1501
647	151.2674
648	158.4958
649	153.3678
650	140.2992
651	121.6934
652	104.5575
653	94.76347
654	82.6171
655	54.37312
656	34.68262
657	37.32322
658	55.68709
659	64.89518
660	68.96478
661	77.4201
662	88.45475
663	102.2272
664	115.9047
665	124.2675
666	124.7094
667	125.0758
668	130.8522
669	141.828
670	161.1151
671	176.2636
672	178.4548
673	171.8462
674	173.545
675	180.6792
676	191.2343
677	200.4117
678	200.7735
679	189.5942
680	175.6981
681	164.5448
682	157.4222
683	157.2865
684	154.4165
685	138.136
686	120.5668
687	109.8564
688	109.1548
689	110.4277
690	119.2445
691	138.1017
692	161.907
693	178.749
694	185.1076
695	202.7369
696	233.2783
697	249.5526
698	238.9555
699	220.585
700	213.1258
701	209.7344
702	204.5733
703	205.3521
704	215.9952
705	229.4048
706	229.707
707	222.9128
708	230.7178
709	251.6506
710	270.7186
711	282.6988
712	297.1717
713	314.983
714	336.4613
715	361.6741
716	385.6281
717	410.0699
718	422.9235
719	428.1686
720	420.1476
721	408.7936
722	394.2771
723	382.3463
724	374.9223
725	363.7311
726	354.8851
727	354.824
728	366.4976
729	385.071
730	406.8139
731	429.4134
732	449.5752
733	464.7297
734	476.2085
735	480.1707
736	480.826
737	479.813
738	487.4806
739	497.1865
740	504.3445
741	506.5809
742	505.093
743	500.821
744	500.8901
745	505.8637
746	509.4814
747	511.01
748	516.8401
749	528.5634
750	552.1746
751	587.7985
752	617.5065
753	629.789
754	628.7561
755	630.6922
756	628.6495
757	630.0018
758	626.8303
759	609.0479
760	588.3974
761	579.1215
762	588.4261
763	613.8498
764	649.2426
765	678.3376
766	692.0898
767	712.1638
768	740.1623
769	769.2664
770	794.0724
771	813.2217
772	830.3054
773	833.7057
774	824.4196
775	806.2133
776	794.3186
777	781.6526
778	758.0689
779	736.2154
780	719.9416
781	715.6182
782	712.5889
783	716.2799
784	730.0343
785	748.1587
786	754.5787
787	743.4182
788	728.1107
789	714.4602
790	698.3503
791	681.8917
792	673.2589
793	676.3751
794	681.1307
795	676.461
796	671.0809
797	670.3064
798	672.387
799	674.2394
800	676.6049
801	679.4983
802	681.2924
803	680.896
804	678.3481
805	674.5203
806	672.6906
807	676.9727
808	690.0809
809	714.1912
810	746.0215
811	780.5211
812	810.6951
813	846.0181
814	884.5683
815	917.5904
816	940.5169
817	944.9267
818	932.1662
819	911.7775
820	899.8309
821	896.0851
822	901.5571
823	908.4952
824	899.4648
825	888.008
826	890.2461
827	902.7629
828	916.0322
829	927.585
830	938.0426
831	941.2408
832	935.007
833	920.3561
834	905.1987
835	896.6368
836	901.9479
837	924.0096
838	949.2098
839	971.4058
840	1005.047
841	1051.272
842	1092.736
843	1120.438
844	1137.899
845	1152.883
846	1157.831
847	1158.445
848	1155.359
849	1159.745
850	1157.254
851	1138.686
852	1109.727
853	1077.321
854	1046.232
855	1007.117
856	975.6255
857	950.7104
858	942.0017
859	937.4179
860	938.9119
861	933.7259
862	922.7341
863	907.6575
864	892.1505
865	874.8218
866	861.4485
867	854.1014
868	855.7515
869	859.2798
870	861.654
871	860.859
872	855.0242
873	843.0228
874	825.3486
875	796.7433
876	757.9763
877	724.4818
878	707.5316
879	703.435
880	701.2825
881	705.3599
882	709.9185
883	712.7593
884	709.1997
885	702.5483
886	696.0913
887	694.9847
888	702.8043
889	716.3546
890	727.0938
891	734.1555
892	744.2822
893	749.4164
894	745.9375
895	732.6155
896	715.7118
897	698.2217
898	681.7844
899	671.6382
900	666.2473
901	663.9809
902	648.4583
903	619.9332
904	589.1019
905	562.4091
906	528.3231
907	492.7889
908	464.331
909	450.9817
910	445.7078
911	445.8177
912	439.5356
913	421.218
914	401.0082
915	384.9824
916	370.8509
917	358.3955
918	346.3933
919	332.3329
920	321.388
921	314.1312
922	312.6566
923	315.3454
924	316.8702
925	310.2996
926	299.7721
927	289.142
928	277.9691
929	263.6292
930	255.2096
931	256.2411
932	262.5862
933	262.7914
934	258.963
935	251.049
936	244.4099
937	248.0829
938	252.3337
939	242.1459
940	220.1584
941	188.0083
942	160.422
943	151.9313
944	159.8115
945	154.042
946	141.889
947	132.3773
948	128.8477
949	130.9233
950	137.4924
951	140.7669
952	138.8739
953	131.4306
954	121.6365
955	119.1992
956	123.2965
957	119.0866
958	109.7348
959	109.7879
960	119.1631
961	123.4175
962	121.9985
963	127.2351
964	138.2769
965	144.3537
966	142.7956
967	140.8856
968	139.3832
969	136.1857
970	131.8335
971	128.2642
972	125.7196
973	117.3337
974	103.1697
975	86.68276
976	72.20813
977	58.97559
978	48.83636
979	38.14176
980	28.5129
981	25.7872
982	32.81551
983	45.58924
984	61.09417
985	79.16976
986	95.32171
987	103.8716
988	100.8985
989	95.68376
990	92.73173
991	79.93127
992	55.6842
993	32.9183
994	20.56706
995	15.95533
996	18.96267
997	33.76879
998	58.18839
999	88.01462
1000	115.7423
1001	143.1954
1002	166.9772
1003	176.1182
1004	167.2624
1005	155.2631
1006	151.316
1007	141.3438
1008	121.9905
1009	103.8199
1010	93.47144
1011	93.2369
1012	103.2841
1013	120.6703
1014	139.7935
1015	156.2825
1016	165.5409
1017	179.3468
1018	202.2594
1019	213.1651
1020	202.9979
1021	195.715
1022	204.6375
1023	218.2947
1024	231.0393
1025	243.694
1026	254.4921
1027	267.9107
1028	284.2852
1029	298.0681
1030	305.6157
1031	301.8674
1032	286.6406
1033	275.9051
1034	279.8513
1035	290.8726
1036	304.8596
1037	321.3655
1038	336.1081
1039	351.3547
1040	365.7079
1041	381.4288
1042	396.2372
1043	403.4453
1044	400.3458
1045	397.9558
1046	401.8636
1047	417.4741
1048	443.9232
1049	473.1786
1050	497.0948
1051	512.5255
1052	516.8535
1053	525.4869
1054	540.9664
1055	558.3585
1056	574.0955
1057	595.2766
1058	619.1111
1059	650.5157
1060	681.4404
1061	708.9392
1062	723.801
1063	728.9503
1064	719.7513
1065	697.2245
1066	666.5047
1067	635.1128
1068	612.7546
1069	590.8162
1070	577.3259
1071	566.2512
1072	564.6768
1073	573.2731
1074	591.001
1075	608.2798
1076	618.2185
1077	619.0504
1078	611.1082
1079	610.4399
1080	612.1939
1081	605.3911
1082	591.8558
1083	574.761
1084	559.1718
1085	549.6405
1086	540.2145
1087	512.3246
1088	471.3974
1089	414.7243
1090	367.6915
1091	340.1289
1092	331.5288
1093	302.848
1094	274.1006
1095	245.7139
1096	225.8917
1097	205.8287
1098	192.3614
1099	176.1378
1100	164.6594
1101	153.4054
1102	152.3834
1103	162.8511
1104	177.7899
1105	187.8056
1106	192.1717
1107	190.8418
1108	183.5627
1109	173.3173
1110	162.5549
1111	154.6485
1112	146.6701
1113	137.7096
1114	121.0513
1115	96.95345
1116	84.01742
1117	90.50564
1118	100.5402
1119	108.9238
1120	124.8743
1121	146.2554
1122	163.0866
1123	170.8716
1124	180.297
1125	189.4416
1126	196.3851
1127	201.6535
1128	215.8912
1129	235.6354
1130	256.5587
1131	271.5473
1132	282.5209
1133	284.061
1134	281.9674
1135	278.9782
1136	289.1076
1137	299.7569
1138	292.8772
1139	278.1069
1140	273.205
1141	274.5582
1142	277.5352
1143	278.1978
1144	268.1738
1145	262.1661
1146	271.2485
1147	287.4468
1148	303.222
1149	302.6644
1150	276.7154
1151	249.9058
1152	240.7894
1153	232.0971
1154	219.4704
1155	208.3686
1156	202.3792
1157	203.1951
1158	210.0426
1159	211.837
1160	205.3188
1161	195.9028
1162	184.2026
1163	163.6627
1164	140.8003
1165	124.1949
1166	116.0261
1167	101.4317
1168	87.60004
1169	76.66066
1170	73.20598
1171	69.73723
1172	74.21624
1173	92.26138
1174	105.1217
1175	89.33943
1176	68.66327
1177	70.15107
1178	74.72592
1179	67.27471
1180	58.88281
1181	54.96178
1182	54.6737
1183	57.75694
1184	67.64867
1185	82.36086
1186	86.66874
1187	76.18827
1188	70.13133
1189	72.73589
1190	73.90047
1191	70.85823
1192	58.45402
1193	43.38235
1194	40.94211
1195	51.64314
1196	61.7465
1197	72.6087
1198	87.61786
1199	98.81342
1200	104.271
1201	101.1358
1202	94.43518
1203	88.51975
1204	90.01621
1205	96.62348
1206	104.4664
1207	114.0724
1208	123.8318
1209	141.7635
1210	167.9355
1211	188.6657
1212	194.5667
1213	183.8943
1214	162.1539
1215	163.5605
1216	189.1538
1217	209.4748
1218	220.5388
1219	231.2872
1220	240.9131
1221	261.3169
1222	279.7607
1223	288.6581
1224	284.823
1225	275.8164
1226	268.4818
1227	272.1812
1228	288.4313
1229	314.3636
1230	338.3969
1231	350.8811
1232	361.7205
1233	373.7415
1234	378.8422
1235	376.2227
1236	383.7241
1237	400.1315
1238	407.8287
1239	407.7878
1240	422.3813
1241	441.0326
1242	442.2573
1243	433.8705
1244	439.8516
1245	450.0728
1246	454.0558
1247	457.0022
1248	463.9427
1249	471.1599
1250	476.5814
1251	483.7524
1252	493.5439
1253	495.5026
1254	489.627
1255	508.6725
1256	552.8862
1257	584.4178
1258	589.6639
1259	582.6915
1260	566.4887
1261	563.127
1262	566.6793
1263	562.678
1264	553.7121
1265	538.2933
1266	529.4719
1267	536.9207
1268	548.8613
1269	554.5729
1270	551.9108
1271	540.7224
1272	542.5364
1273	563.9917
1274	586.0561
1275	603.3413
1276	633.0096
1277	661.9742
1278	668.4175
1279	661.1212
1280	685.207
1281	715.3781
1282	719.8474
1283	715.1857
1284	726.2789
1285	742.7313
1286	758.53
1287	791.2935
1288	844.3439
1289	886.0568
1290	903.4628
1291	944.9532
1292	1010.343
1293	1082.314
1294	1144.005
1295	1211.276
1296	1265.77
1297	1332.418
1298	1380.447
1299	1424.357
1300	1431.637
1301	1408.309
1302	1362.38
1303	1317.262
1304	1261.789
1305	1201.076
1306	1127.362
1307	1058.023
1308	1002.146
1309	973.6426
1310	938.6548
1311	905.8533
1312	861.5023
1313	824.9354
1314	798.5063
1315	779.9742
1316	745.7581
1317	714.8503
1318	693.7296
1319	672.4153
1320	645.1642
1321	615.1635
1322	591.1307
1323	581.1113
1324	588.1187
1325	589.4897
1326	587.1531
1327	586.4905
1328	588.7114
1329	596.5884
1330	600.4957
1331	592.2336
1332	574.7777
1333	553.9892
1334	548.2704
1335	565.1951
1336	570.8617
1337	558.2984
1338	555.2814
1339	565.7158
1340	582.0579
1341	599.9238
1342	617.542
1343	624.6942
1344	617.0646
1345	609.0884
1346	620.236
1347	629.4922
1348	625.6368
1349	611.8721
1350	592.4042
1351	574.3122
1352	564.5739
1353	559.3235
1354	559.4048
1355	555.2838
1356	549.8991
1357	543.9423
1358	539.6876
1359	537.6685
1360	535.127
1361	529.8613
1362	530.8865
1363	540.4377
1364	551.8341
1365	557.8148
1366	552.4352
1367	529.7103
1368	489.7461
1369	441.2177
1370	386.0669
1371	350.8101
1372	341.9563
1373	356.3119
1374	379.188
1375	399.6732
1376	405.8921
1377	399.1422
1378	381.1536
1379	371.13
1380	359.3417
1381	314.9758
1382	264.3247
1383	231.0323
1384	222.0471
1385	229.7598
1386	240.4753
1387	240.9376
1388	248.3472
1389	263.5786
1390	277.3969
1391	284.7192
1392	288.5877
1393	287.1179
1394	285.9991
1395	285.4936
1396	289.1698
1397	287.4662
1398	275.6397
1399	269.7007
1400	274.0508
1401	262.2967
1402	240.0594
1403	240.772
1404	257.4836
1405	258.1545
1406	252.4956
1407	252.0631
1408	258.3819
1409	272.7059
1410	294.2681
1411	318.654
1412	335.0346
1413	340.7412
1414	357.5823
1415	377.0952
1416	386.0338
1417	388.0301
1418	396.7982
1419	409.6191
1420	425.512
1421	453.9546
1422	494.2138
1423	543.7113
1424	597.0735
1425	679.1785
1426	781.4755
1427	917.2722
1428	1061.643
1429	1213.963
1430	1368.513
1431	1536.574
1432	1703.478
1433	1855.124
1434	1990.519
1435	2073.88
1436	2138.257
1437	2158.109
1438	2178.043
1439	2172.606
1440	2153.547
1441	2127.3
1442	2109.663
1443	2093.919
1444	2077.596
1445	2038.895
1446	1985.988
1447	1940.45
1448	1915.781
1449	1894.132
1450	1885.506
1451	1877.568
1452	1874.376
1453	1873.731
1454	1886.542
1455	1903.731
1456	1880.938
1457	1819.477
1458	1757.076
1459	1689.942
1460	1597.898
1461	1500.125
1462	1403.337
1463	1286.281
1464	1162.711
1465	1056.885
1466	992.8105
1467	909.1274
1468	837.1033
1469	760.3104
1470	705.938
1471	661.5612
1472	625.5931
1473	590.0225
1474	547.8246
1475	506.038
1476	467.7086
1477	442.7909
1478	416.3431
1479	393.394
1480	359.8762
1481	334.7639
1482	326.3099
1483	320.0523
1484	311.7537
1485	304.3283
1486	295.2318
1487	271.0211
1488	245.1303
1489	229.5451
1490	217.37
1491	200.4704
1492	185.39
1493	176.1483
1494	176.9516
1495	179.3181
1496	152.6088
1497	110.8126
1498	75.6898
1499	59.27702
1500	65.15192
1501	84.18311
1502	106.8748
1503	140.9664
1504	174.617
1505	202.6419
1506	212.216
1507	213.4632
1508	197.7212
1509	172.1168
1510	142.3394
1511	119.5297
1512	104.7133
1513	103.6863
1514	107.4689
1515	117.4526
1516	124.8147
1517	146.1653
1518	188.7606
1519	216.2256
1520	212.3336
1521	197.9499
1522	177.5729
1523	161.3634
1524	147.8205
1525	129.3035
1526	109.5221
1527	89.79668
1528	84.35028
1529	94.12275
1530	89.8582
1531	76.9221
1532	72.42019
1533	81.17099
1534	102.2939
1535	131.8855
1536	159.6357
1537	163.0904
1538	140.4352
1539	130.2339
1540	129.9667
1541	123.6744
1542	117.8339
1543	113.4102
1544	126.4924
1545	157.3596
1546	174.0055
1547	170.5479
1548	171.6217
1549	172.2381
1550	169.659
1551	174.1829
1552	190.9392
1553	201.5409
1554	200.6134
1555	208.4826
1556	214.3529
1557	197.3528
1558	177.6564
1559	179.4358
1560	171.9223
1561	146.886
1562	143.2566
1563	163.3233
1564	174.3377
1565	173.8195
1566	163.0091
1567	150.769
1568	146.5167
1569	140.8564
1570	132.9977
1571	121.426
1572	116.08
1573	129.8739
1574	142.1588
1575	130.5483
1576	111.7148
1577	96.56498
1578	83.91212
1579	77.63563
1580	67.69358
1581	67.61646
1582	84.26155
1583	109.799
1584	134.4171
1585	153.688
1586	161.1921
1587	168.609
1588	165.4989
1589	147.0603
1590	127.6786
1591	121.6716
1592	123.0086
1593	131.2366
1594	142.9975
1595	158.7478
1596	184.2834
1597	200.5286
1598	196.6687
1599	191.4157
1600	191.7355
1601	185.1445
1602	172.2298
1603	155.7855
1604	142.3952
1605	136.3167
1606	138.3434
1607	145.2071
1608	142.0253
1609	133.8871
1610	141.2924
1611	153.1819
1612	154.5932
1613	155.9495
1614	161.4311
1615	168.4326
1616	172.3981
1617	166.7928
1618	158.6524
1619	158.7633
1620	168.0111
1621	183.0643
1622	185.9272
1623	172.6326
1624	154.0312
1625	138.5211
1626	134.2661
1627	130.4017
1628	120.8572
1629	112.6709
1630	112.5041
1631	129.0289
1632	145.3226
1633	139.5973
1634	128.0677
1635	122.6672
1636	127.2554
1637	141.2641
1638	156.4223
1639	165.789
1640	165.1057
1641	162.2063
1642	162.5308
1643	158.5795
1644	151.3058
1645	144.75
1646	139.6707
1647	135.2176
1648	130.7322
1649	127.8724
1650	136.2478
1651	153.0944
1652	164.6829
1653	174.2436
1654	187.0491
1655	189.9174
1656	180.6261
1657	177.9432
1658	180.8868
1659	178.0842
1660	178.2771
1661	186.9841
1662	190.077
1663	184.9621
1664	186.9008
1665	191.9217
1666	189.9943
1667	188.4352
1668	192.3142
1669	202.0867
1670	214.1642
1671	225.3178
1672	220.2525
1673	186.79
1674	157.7038
1675	155.5629
1676	155.8186
1677	156.9898
1678	158.145
1679	160.3253
1680	162.9377
1681	173.7307
1682	190.7699
1683	190.6975
1684	181.6273
1685	196.7959
1686	212.398
1687	210.6734
1688	210.7796
1689	213.6918
1690	204.1946
1691	191.174
1692	189.1873
1693	191.8876
1694	194.6976
1695	200.0854
1696	203.6754
1697	195.7976
1698	190.249
1699	201.7779
1700	211.3566
1701	210.6043
1702	205.5321
1703	200.866
1704	205.9959
1705	212.4159
1706	212.3851
1707	204.9557
1708	192.6017
1709	184.2777
1710	176.9151
1711	163.5548
1712	157.0264
1713	163.0071
1714	174.9785
1715	193.8624
1716	226.9936
1717	247.206
1718	237.7016
1719	224.9833
1720	213.9812
1721	192.7849
1722	171.5092
1723	158.1697
1724	151.9076
1725	151.8626
1726	158.3271
1727	166.0459
1728	162.4449
1729	160.9551
1730	170.5211
1731	178.1283
1732	180.9399
1733	187.7773
1734	191.699
1735	188.943
1736	176.0877
1737	159.1762
1738	163.0908
1739	178.7771
1740	178.2177
1741	182.1739
1742	199.2537
1743	218.8477
1744	226.4894
1745	211.4112
1746	179.5386
1747	148.549
1748	133.7439
1749	140.5208
1750	144.7841
1751	144.7046
1752	135.9921
1753	132.3391
1754	138.4457
1755	140.1556
1756	136.3971
1757	131.3786
1758	120.533
1759	105.3731
1760	104.6447
1761	111.755
1762	91.38583
1763	72.89225
1764	81.64468
1765	103.6529
1766	131.5558
1767	167.2143
1768	188.9063
1769	182.8322
1770	182.3729
1771	196.8724
1772	186.0756
1773	159.4025
1774	140.9443
1775	132.7419
1776	135.6395
1777	136.9396
1778	135.2366
1779	132.1615
1780	125.0858
1781	113.4234
1782	91.50434
1783	72.28918
1784	76.82183
1785	94.19845
1786	105.57
1787	124.7523
1788	149.7769
1789	180.0437
1790	196.1717
1791	188.2619
1792	166.3383
1793	145.1806
1794	148.9117
1795	155.8243
1796	126.9952
1797	114.2763
1798	133.8902
1799	145.2527
1800	151.4271
1801	165.1015
1802	165.6833
1803	149.4193
1804	148.792
1805	154.3071
1806	139.7917
1807	118.5106
1808	100.3866
1809	85.27969
1810	79.78042
1811	80.5124
1812	92.01849
1813	110.5069
1814	130.2027
1815	145.6693
1816	165.5181
1817	171.5739
1818	160.3963
1819	162.8753
1820	177.6113
1821	178.7596
1822	182.386
1823	198.5189
1824	196.5081
1825	177.0869
1826	168.5175
1827	161.749
1828	150.1536
1829	148.6419
1830	157.8691
1831	162.9139
1832	168.093
1833	175.3702
1834	172.4112
1835	162.447
1836	165.0848
1837	171.1834
1838	171.659
1839	178.9245
1840	187.3058
1841	178.5675
1842	165.164
1843	160.8674
1844	144.387
1845	122.1131
1846	113.8417
1847	117.5846
1848	124.4744
1849	142.1681
1850	159.6382
1851	156.4269
1852	143.1486
1853	135.5484
1854	128.3454
1855	128.5308
1856	145.637
1857	164.748
1858	170.6016
1859	178.997
1860	188.4469
1861	198.4959
1862	201.1831
1863	195.0739
1864	189.6138
1865	184.0243
1866	172.3
1867	156.3561
1868	140.9935
1869	141.0643
1870	157.4247
1871	177.4531
1872	195.5119
1873	202.2772
1874	191.8045
1875	169.6973
1876	153.1445
1877	136.3221
1878	121.8809
1879	117.329
1880	125.4049
1881	138.1835
1882	157.678
1883	176.6018
1884	183.725
1885	181.1759
1886	180.5905
1887	182.3072
1888	186.5841
1889	191.6715
1890	192.7825
1891	187.3838
1892	180.383
1893	173.5532
1894	166.5738
1895	153.2301
1896	133.3606
1897	136.2317
1898	156.381
1899	163.2309
1900	166.2524
1901	167.0497
1902	154.2117
1903	136.6561
1904	131.0409
1905	126.4983
1906	120.4558
1907	117.5063
1908	118.152
1909	119.3823
1910	139.8261
1911	169.9402
1912	174.5858
1913	166.0095
1914	163.6457
1915	162.7025
1916	160.1557
1917	148.4597
1918	135.7054
1919	129.1795
1920	131.2115
1921	136.8815
1922	132.5333
1923	134.3322
1924	144.4299
1925	143.0071
1926	143.4743
1927	161.3283
1928	187.3456
1929	208.3742
1930	217.6876
1931	212.2124
1932	199.7769
1933	190.7042
1934	177.3581
1935	137.5532
1936	111.7082
1937	121.4551
1938	143.7118
1939	166.8906
1940	172.7747
1941	170.8378
1942	165.8346
1943	167.9533
1944	160.7196
1945	135.4157
1946	107.035
1947	90.64407
1948	90.1233
1949	102.1198
1950	116.7053
1951	129.955
1952	140.1864
1953	150.3954
1954	148.1768
1955	134.0756
1956	123.4305
1957	119.9779
1958	125.7713
1959	137.5485
1960	150.0115
1961	158.5134
1962	158.894
1963	150.2798
1964	134.3093
1965	122.8833
1966	126.1972
1967	125.0301
1968	114.3414
1969	94.75415
1970	82.05529
1971	83.46272
1972	72.75892
1973	62.31599
1974	68.2794
1975	86.69142
1976	109.4542
1977	125.4882
1978	140.3188
1979	158.8116
1980	169.2589
1981	158.2191
1982	121.7391
1983	92.57256
1984	88.45967
1985	86.42146
1986	88.80215
1987	91.30772
1988	109.2121
1989	129.5611
1990	129.0655
1991	115.9927
1992	102.8695
1993	108.3467
1994	121.2893
1995	124.4113
1996	130.1634
1997	135.0435
1998	129.5459
1999	133.2535
2000	150.5471
2001	155.2739
2002	146.6416
2003	132.5038
2004	113.4317
2005	95.92203
2006	81.84798
2007	83.43907
2008	100.2964
2009	115.1158
2010	123.7203
2011	126.3891
2012	123.9433
2013	114.3054
2014	95.13412
2015	74.8212
2016	65.43875
2017	86.99562
2018	104.8534
2019	81.24739
2020	78.10332
2021	97.41077
2022	107.9518
2023	114.6799
2024	119.2583
2025	130.2302
2026	141.3626
2027	145.7741
2028	126.0804
2029	97.04695
2030	92.82885
2031	83.8081
2032	68.30404
2033	77.12067
2034	101.0085
2035	123.214
2036	150.9768
2037	165.701
2038	153.5586
2039	132.3701
2040	114.2669
2041	97.66463
2042	86.45309
2043	81.04559
2044	78.77229
2045	91.26098
2046	123.2233
2047	136.971
2048	127.4236
2049	123.686
2050	127.3079
2051	138.2971
2052	145.6993
2053	142.7952
2054	128.4201
2055	110.6996
2056	87.95001
2057	52.17055
2058	29.37031
2059	29.51489
2060	31.05048
2061	51.19334
2062	86.01897
2063	111.0618
2064	125.9056
2065	141.5996
2066	141.8466
2067	129.7671
2068	124.8781
2069	123.7002
2070	122.5639
2071	110.5012
2072	94.79556
2073	83.10344
2074	68.22314
2075	56.59494
2076	51.01043
2077	51.21873
2078	64.96745
2079	104.2589
2080	123.9322
2081	109.2554
2082	103.2156
2083	98.42303
2084	94.47671
2085	101.1809
2086	119.2186
2087	141.8356
2088	166.2148
2089	175.4309
2090	157.6464
2091	128.9376
2092	109.1199
2093	106.6212
2094	109.0254
2095	104.7851
2096	117.4492
2097	137.9691
2098	150.8636
2099	160.5751
2100	161.3647
2101	152.3858
2102	140.5819
2103	127.6193
2104	102.3677
2105	79.37598
2106	68.29225
2107	58.79074
2108	62.84525
2109	80.2824
2110	88.67142
2111	84.61491
2112	75.41794
2113	72.55467
2114	80.65289
2115	94.94698
2116	106.8631
2117	113.6576
2118	132.6356
2119	142.6489
2120	135.1972
2121	128.0959
2122	124.0646
2123	125.9374
2124	134.8993
2125	142.5069
2126	137.5487
2127	137.3984
2128	138.3426
2129	123.5796
2130	116.0033
2131	120.0026
2132	110.9589
2133	102.5172
2134	102.0009
2135	102.8663
2136	109.2427
2137	117.8339
2138	100.9538
2139	74.68324
2140	67.51682
2141	65.87729
2142	71.38367
2143	83.45975
2144	97.26403
2145	106.0385
2146	110.4941
2147	100.4354
2148	81.55193
2149	75.75318
2150	75.35614
2151	74.33346
2152	78.46757
2153	85.30142
2154	90.44566
2155	90.63323
2156	89.89188
2157	95.43764
2158	111.3542
2159	123.4193
2160	112.8031
2161	97.25706
2162	86.20867
2163	81.76575
2164	72.56995
2165	60.03258
2166	54.74649
2167	70.1649
2168	101.9481
2169	127.7106
2170	136.404
2171	128.7896
2172	130.5586
2173	134.4505
2174	133.8491
2175	138.7464
2176	148.5427
2177	158.8591
2178	156.7319
2179	138.8937
2180	112.4672
2181	107.94
2182	124.6642
2183	134.0954
2184	148.7294
2185	164.9775
2186	177.8577
2187	168.2069
2188	138.9691
2189	112.0853
2190	112.1043
2191	139.0569
2192	148.8127
2193	147.6827
2194	142.4938
2195	139.1215
2196	134.1794
2197	125.3482
2198	110.5483
2199	106.6597
2200	123.6591
2201	131.1922
2202	133.7728
2203	141.0314
2204	134.115
2205	125.7322
2206	136.7484
2207	141.8242
2208	141.4247
2209	147.2858
2210	134.0814
2211	111.8971
2212	111.0552
2213	117.5058
2214	124.7378
2215	128.3331
2216	132.6112
2217	138.2373
2218	146.1375
2219	142.3634
2220	128.9098
2221	124.9677
2222	134.969
2223	150.467
2224	146.3157
2225	137.4377
2226	135.9693
2227	141.0819
2228	151.5561
2229	164.4541
2230	185.529
2231	203.2554
2232	208.204
2233	201.7814
2234	189.2204
2235	178.8462
2236	162.7748
2237	150.6154
2238	148.9066
2239	155.2941
2240	155.6209
2241	139.4256
2242	121.9709
2243	114.0481
2244	117.8811
2245	104.6507
2246	103.4353
2247	134.6502
2248	157.3319
2249	163.4364
2250	158.11
2251	158.6054
2252	162.962
2253	164.4451
2254	145.9405
2255	130.5759
2256	140.7495
2257	136.1823
2258	125.2531
2259	122.9047
2260	119.353
2261	118.1252
2262	121.4047
2263	123.0373
2264	124.3123
2265	127.2666
2266	127.2599
2267	129.6862
2268	139.0194
2269	139.0675
2270	138.9371
2271	150.7563
2272	165.1832
2273	175.5129
2274	178.0853
2275	182.205
2276	179.0487
2277	164.4172
2278	155.3998
2279	154.024
2280	156.1089
2281	154.0719
2282	150.3224
2283	150.4103
2284	167.458
2285	181.2758
2286	173.7392
2287	163.9817
2288	154.714
2289	147.0273
2290	123.2931
2291	109.1966
2292	124.7423
2293	161.3548
2294	188.1306
2295	182.4369
2296	172.3021
2297	157.5307
2298	145.1288
2299	134.7976
2300	143.0553
2301	168.6521
2302	192.1553
2303	194.2121
2304	173.9451
2305	160.6962
2306	152.3566
2307	153.7402
2308	172.5765
2309	177.4775
2310	160.1212
2311	143.8225
2312	131.6169
2313	128.2402
2314	128.5196
2315	145.2185
2316	172.4652
2317	193.0711
2318	190.4459
2319	175.056
2320	176.6515
2321	178.7492
2322	183.1567
2323	192.2224
2324	188.5919
2325	183.9867
2326	193.9148
2327	194.8326
2328	185.4256
2329	171.2273
2330	161.9639
2331	143.4507
2332	109.7598
2333	76.80297
2334	70.05269
2335	94.20768
2336	118.8038
2337	135.0732
2338	143.4694
2339	175.9651
2340	184.1555
2341	165.6066
2342	168.8061
2343	168.3762
2344	169.1648
2345	189.2112
2346	207.1426
2347	214.3372
2348	213.2238
2349	203.1398
2350	191.204
2351	187.0779
2352	183.0956
2353	186.0693
2354	196.1388
2355	192.1148
2356	183.9519
2357	181.0411
2358	176.4264
2359	170.678
2360	167.7659
2361	177.4515
2362	176.4709
2363	160.4423
2364	147.0408
2365	154.7204
2366	176.8162
2367	188.0714
2368	201.1418
2369	217.4798
2370	234.6426
2371	233.09
2372	222.4614
2373	218.5792
2374	209.9137
2375	193.3933
2376	172.1174
2377	155.1438
2378	150.6997
2379	157.1338
2380	161.8272
2381	165.4464
2382	165.4549
2383	161.2656
2384	158.2456
2385	154.8694
2386	147.8344
2387	145.6289
2388	148.2496
2389	150.1605
2390	136.8941
2391	132.6778
2392	148.0935
2393	152.4809
2394	161.4265
2395	175.6945
2396	183.9237
2397	186.9722
2398	181.537
2399	167.91
2400	178.8176
2401	203.6937
2402	215.4397
2403	219.6455
2404	217.3587
2405	210.887
2406	190.2401
2407	166.2765
2408	151.9219
2409	146.9611
2410	158.8085
2411	175.3316
2412	174.5432
2413	169.0157
2414	150.2399
2415	117.8871
2416	100.1837
2417	103.9079
2418	124.5634
2419	160.348
2420	185.9027
2421	191.874
2422	199.254
2423	183.8694
2424	148.2481
2425	112.3393
2426	113.3453
2427	135.278
2428	144.8022
2429	141.5103
2430	149.2557
2431	170.7311
2432	168.7149
2433	146.6829
2434	126.6856
2435	137.5871
2436	163.988
2437	187.0428
2438	189.3122
2439	192.6362
2440	186.7787
2441	169.5282
2442	147.0494
2443	137.0438
2444	151.584
2445	185.5051
2446	194.9349
2447	187.8323
2448	193.7123
2449	198.1292
2450	191.0386
2451	173.3456
2452	165.0055
2453	151.2436
2454	139.2892
2455	150.4191
2456	169.4225
2457	191.2187
2458	209.2661
2459	209.3611
2460	191.2309
2461	168.0875
2462	149.2965
2463	151.3623
2464	167.4864
2465	171.8039
2466	182.4845
2467	196.449
2468	204.7087
2469	198.4825
2470	195.2792
2471	204.1938
2472	212.416
2473	194.2425
2474	171.846
2475	185.83
2476	196.687
2477	199.3978
2478	196.2808
2479	199.5158
2480	195.4889
2481	179.7009
2482	158.4802
2483	141.9533
2484	135.1974
2485	135.909
2486	142.6104
2487	159.6843
2488	172.5038
2489	151.6415
2490	155.1356
2491	172.0066
2492	161.104
2493	160.9583
2494	161.7044
2495	164.4068
2496	207.1667
2497	216.8046
2498	196.5519
2499	207.963
2500	201.465
2501	183.996
2502	175.111
2503	183.409
2504	204.2238
2505	219.7182
2506	213.8373
2507	229.832
2508	239.6071
2509	219.0293
2510	223.5175
2511	237.3096
2512	239.962
2513	216.8219
2514	200.9856
2515	203.7179
2516	217.9707
2517	214.5889
2518	220.3489
2519	240.419
2520	249.2911
2521	239.537
2522	220.2122
2523	210.8299
2524	211.9841
2525	215.6
2526	216.2024
2527	218.717
2528	223.9207
2529	219.2548
2530	200.4912
2531	202.8732
2532	217.3219
2533	230.7683
2534	236.3018
2535	221.331
2536	214.3252
2537	234.3623
2538	218.7177
2539	201.0597
2540	191.5266
2541	170.3747
2542	159.5939
2543	174.5997
2544	211.7297
2545	249.346
2546	266.034
2547	260.4781
2548	253.6993
2549	243.5414
2550	232.487
2551	223.8573
2552	220.0572
2553	196.7691
2554	172.0103
2555	178.6721
2556	175.0938
2557	197.8038
2558	241.3544
2559	242.5201
2560	233.731
2561	222.0762
2562	211.1826
2563	209.45
2564	201.3332
2565	191.3264
2566	200.9877
2567	180.6233
2568	157.1417
2569	156.9377
2570	146.3628
2571	152.6885
2572	176.5877
2573	201.6483
2574	235.5417
2575	248.1819
2576	235.8793
2577	236.7192
2578	234.7473
2579	228.5477
2580	223.3738
2581	229.5043
2582	244.4885
2583	249.7866
2584	229.5614
2585	223.6879
2586	224.9225
2587	221.6233
2588	210.5233
2589	205.1489
2590	202.894
2591	200.5167
2592	215.2878
2593	243.4404
2594	269.8454
2595	279.3888
2596	277.7829
2597	251.5292
2598	210.831
2599	185.7573
2600	189.039
2601	207.1378
2602	215.0989
2603	215.6778
2604	218.3954
2605	222.0745
2606	221.6565
2607	242.341
2608	263.2242
2609	268.2332
2610	261.0184
2611	249.4691
2612	232.038
2613	215.2798
2614	217.0797
2615	233.3063
2616	251.4579
2617	257.5858
2618	259.4791
2619	250.7505
2620	227.1624
2621	191.1495
2622	167.4566
2623	169.7385
2624	190.4724
2625	205.8445
2626	214.5248
2627	235.4118
2628	268.328
2629	270.104
2630	267.2064
2631	265.8861
2632	264.1538
2633	255.1711
2634	244.1937
2635	246.7001
2636	268.5759
2637	264.7129
2638	262.2512
2639	267.8846
2640	264.4917
2641	250.8994
2642	237.0054
2643	224.9099
2644	201.1879
2645	153.8172
2646	158.9625
2647	234.6858
2648	270.7549
2649	405.3701
2650	552.4847
2651	596.1176
2652	587.899
2653	510.419
2654	412.5562
2655	341.354
2656	218.8949
2657	204.0739
2658	239.6056
2659	183.8559
2660	162.1811
2661	177.8068
2662	213.4918
2663	235.7787
2664	238.219
2665	237.2226
2666	226.343
2667	183.3067
2668	167.3126
2669	185.884
2670	220.44
2671	241.224
2672	220.703
2673	200.1102
2674	204.0798
2675	198.2987
2676	193.512
2677	195.3677
2678	203.9501
2679	211.4996
2680	206.8368
2681	218.398
2682	261.3073
2683	305.302
2684	320.9889
2685	298.5948
2686	252.8911
2687	206.7278
2688	182.1478
2689	179.8811
2690	191.6831
2691	223.8948
2692	250.6241
2693	243.0104
2694	203.4958
2695	177.9211
2696	183.7869
2697	201.8645
2698	207.8739
2699	217.6349
2700	228.4675
2701	226.1472
2702	209.666
2703	206.2202
2704	216.6893
2705	227.6324
2706	227.3141
2707	227.327
2708	232.7525
2709	240.7258
2710	244.4718
2711	240.729
2712	238.5456
2713	228.6153
2714	208.5672
2715	193.0091
2716	179.7421
2717	170.2294
2718	172.1544
2719	197.6728
2720	211.2809
2721	216.156
2722	228.7595
2723	258.4963
2724	275.2015
2725	267.4434
2726	253.4642
2727	263.0271
2728	238.0957
2729	200.1593
2730	189.7825
2731	224.2343
2732	245.9802
2733	260.6539
2734	271.0515
2735	272.9911
2736	253.1181
2737	235.5395
2738	229.0926
2739	223.4032
2740	209.1891
2741	208.2898
2742	200.8382
2743	168.0987
2744	145.1477
2745	141.3209
2746	131.5482
2747	109.6916
2748	128.3785
2749	160.3551
2750	184.5627
2751	195.3838
2752	209.4758
2753	198.4433
2754	171.2102
2755	149.4539
2756	144.7593
2757	130.4444
2758	125.1905
2759	136.7063
2760	155.6757
2761	167.7544
2762	192.3401
2763	209.5108
2764	199.5761
2765	193.8169
2766	185.8445
2767	188.1281
2768	201.1337
2769	202.2229
2770	189.1841
2771	168.7604
2772	152.5598
2773	146.5853
2774	141.0306
2775	124.7253
2776	104.6065
2777	95.10277
2778	75.83208
2779	78.20869
2780	93.44823
2781	104.1165
2782	121.5695
2783	105.1148
2784	92.6308
2785	100.3794
2786	90.53347
2787	75.74108
2788	70.62939
2789	78.6264
2790	91.28247
2791	107.6623
2792	128.1162
2793	140.5319
2794	133.6594
2795	110.8479
2796	87.38068
2797	69.66082
2798	61.37394
2799	67.6092
2800	110.2729
2801	150.8818
2802	164.7214
2803	154.9724
2804	136.7402
2805	105.3021
2806	75.26715
2807	65.14704
2808	81.23652
2809	90.21381
2810	93.08006
2811	97.77052
2812	102.4966
2813	71.6646
2814	62.20487
2815	64.76477
2816	64.39437
2817	89.45564
2818	120.2884
2819	130.4673
2820	105.2564
2821	61.62357
2822	46.96428
2823	55.64374
2824	71.76868
2825	90.3464
2826	131.6615
2827	149.2372
2828	152.2397
2829	153.9644
2830	157.8637
2831	169.2352
2832	163.0597
2833	160.2934
2834	174.4189
2835	176.6245
2836	182.3717
2837	211.8477
2838	248.6728
2839	268.4374
2840	316.4756
2841	353.6726
2842	381.8016
2843	415.7266
2844	460.2021
2845	533.0274
2846	582.3355
2847	614.6486
2848	653.7558
2849	666.2476
2850	657.2634
2851	643.0618
2852	627.8649
2853	600.0874
2854	575.5368
2855	557.7852
2856	569.0328
2857	600.6584
2858	600.9921
2859	593.5637
2860	575.455
2861	554.8692
2862	541.0084
2863	532.558
2864	547.4453
2865	564.1267
2866	575.5642
2867	596.7249
2868	621.3223
2869	633.6032
2870	634.8169
2871	634.5567
2872	637.2688
2873	636.2543
2874	635.0483
2875	622.5823
2876	591.271
2877	555.5867
2878	519.066
2879	500.7946
2880	502.2467
2881	507.4482
2882	505.9182
2883	501.3207
2884	493.2929
2885	489.3015
2886	497.9424
2887	510.4595
2888	527.8476
2889	549.0981
2890	570.1636
2891	584.7436
2892	584.8896
2893	563.9232
2894	532.5797
2895	499.823
2896	463.9355
2897	459.0058
2898	472.8256
2899	489.8708
2900	495.1718
2901	479.5557
2902	467.0392
2903	442.5422
2904	435.5814
2905	460.7234
2906	471.682
2907	480.024
2908	474.8464
2909	452.1275
2910	420.1493
2911	397.3807
2912	392.284
2913	405.2793
2914	424.2364
2915	431.7468
2916	419.1111
2917	418.954
2918	416.9653
2919	404.5091
2920	392.2834
2921	400.6642
2922	407.5049
2923	403.2213
2924	397.6113
2925	396.5914
2926	379.2959
2927	360.1874
2928	349.586
2929	352.1045
2930	359.4077
2931	355.5814
2932	335.2649
2933	333.0066
2934	351.4025
2935	373.7307
2936	392.3585
2937	386.3815
2938	345.69
2939	290.3011
2940	248.7955
2941	229.4733
2942	224.581
2943	223.5622
2944	229.0802
2945	230.3004
2946	214.6644
2947	240.5946
2948	243.8207
2949	224.1678
2950	188.2238
2951	152.4987
2952	181.8596
2953	185.6299
2954	203.7339
2955	237.7496
2956	244.809
2957	223.134
2958	181.5507
2959	178.0862
2960	192.9523
2961	180.7889
2962	158.8957
2963	144.1842
2964	125.3611
2965	88.16913
2966	52.07603
2967	50.2438
2968	45.41448
2969	48.69292
2970	63.68787
2971	86.18768
2972	99.37865
2973	81.7063
2974	72.36584
2975	56.44569
2976	45.85843
2977	48.75766
2978	41.21999
2979	40.44868
2980	37.8813
2981	45.62897
2982	65.72601
2983	79.95628
2984	78.63094
2985	83.57523
2986	88.74264
2987	83.63316
2988	71.08372
2989	66.29681
2990	47.92007
2991	35.37234
2992	42.68869
2993	63.80305
2994	76.61613
2995	70.09629
2996	70.08118
2997	56.61863
2998	35.95469
2999	28.5254
3000	31.99699
3001	75.53564
3002	103.922
3003	113.8319
3004	104.9966
3005	69.68455
3006	41.36013
3007	30.36154
3008	50.10732
3009	69.30089
3010	77.18498
3011	106.0638
3012	97.57421
3013	98.19668
3014	110.7749
3015	124.3775
3016	122.6077
3017	93.17439
3018	95.58702
3019	81.39531
3020	62.09612
3021	57.47662
3022	57.50832
3023	54.55538
3024	47.12117
3025	50.10162
3026	70.21387
3027	97.81448
3028	116.3285
3029	121.6629
3030	112.4711
3031	97.91277
3032	84.15157
3033	78.68465
3034	90.00969
3035	97.31373
3036	117.2103
3037	128.2244
3038	129.7714
3039	130.8642
3040	121.021
3041	113.4061
3042	106.6552
3043	123.4188
3044	136.3183
3045	128.515
3046	158.4623
3047	170.6299
3048	170.2246
3049	149.7551
3050	140.0647
3051	153.4294
3052	132.5356
3053	121.1573
3054	134.1157
3055	134.5241
3056	112.5036
3057	94.99986
3058	90.55093
3059	84.2261
3060	66.69717
3061	79.11506
3062	101.0444
3063	101.3164
3064	115.8827
3065	113.6128
3066	124.6315
3067	133.5888
3068	148.3878
3069	162.7575
3070	140.0625
3071	122.9281
3072	117.4281
3073	136.7639
3074	163.0684
3075	171.6757
3076	158.0891
3077	124.4405
3078	97.46634
3079	89.69392
3080	94.79449
3081	108.236
3082	123.606
3083	118.5647
3084	129.871
3085	149.4362
3086	161.703
3087	153.0072
3088	127.0483
3089	103.327
3090	91.21796
3091	142.036
3092	191.3505
3093	222.0189
3094	242.206
3095	232.1265
3096	192.797
3097	146.2038
3098	153.3591
3099	165.2278
3100	169.3275
3101	195.4658
3102	209.1207
3103	195.015
3104	193.5239
3105	201.9511
3106	182.5887
3107	150.2959
3108	160.6417
3109	179.3762
3110	178.4388
3111	206.9199
3112	217.3565
3113	186.4962
3114	156.9964
3115	161.6473
3116	172.4406
3117	157.8252
3118	134.2392
3119	111.4372
3120	90.17879
3121	81.12372
3122	104.7869
3123	140.9549
3124	154.5869
3125	170.2352
3126	176.896
3127	151.8665
3128	122.1535
3129	141.108
3130	151.3623
3131	167.5311
3132	187.175
3133	180.9438
3134	148.1555
3135	131.5892
3136	143.6169
3137	134.9367
3138	136.3603
3139	145.7611
3140	147.5933
3141	143.1733
3142	150.3721
3143	166.91
3144	161.0926
3145	153.0659
3146	147.7203
3147	140.5141
3148	131.6443
3149	133.143
3150	153.3831
3151	172.9289
3152	175.5778
3153	184.3318
3154	186.5561
3155	160.5858
3156	128.716
3157	134.7458
3158	158.2694
3159	156.4253
3160	183.6225
3161	187.333
3162	143.0784
3163	99.17563
3164	84.10753
3165	98.78027
3166	123.3357
3167	157.9333
3168	162.4061
3169	141.456
3170	116.7461
3171	95.1545
3172	99.29606
3173	116.0032
3174	138.4034
3175	157.7344
3176	173.7053
3177	189.2472
3178	195.7058
3179	175.8602
3180	132.4966
3181	112.6118
3182	114.8111
3183	148.1994
3184	191.468
3185	208.5359
3186	191.3286
3187	162.606
3188	132.589
3189	103.949
3190	99.6985
3191	108.6423
3192	116.6642
3193	128.1599
3194	146.3996
3195	144.7493
3196	101.812
3197	64.74189
3198	45.50341
3199	56.14337
3200	79.89917
