RamanShift	Intensity
190	4299.865
191	4237.177
192	4172.15
193	4112.928
194	4027.75
195	3937.416
196	3847.54
197	3773.905
198	3714.245
199	3645.892
200	3595.981
201	3533.894
202	3479.199
203	3419.07
204	3356.951
205	3301.631
206	3237.645
207	3186.913
208	3135.518
209	3097.027
210	3051.164
211	2994.564
212	2940.063
213	2881.56
214	2829.208
215	2760.175
216	2689.066
217	2614.41
218	2536.921
219	2471.904
220	2398.955
221	2347.5
222	2295.956
223	2258.347
224	2213.75
225	2155.703
226	2102.811
227	2049.611
228	2009.822
229	1958.181
230	1909.513
231	1863.575
232	1825.692
233	1795.131
234	1751.427
235	1710.266
236	1657.99
237	1606.303
238	1554.143
239	1505.917
240	1467.267
241	1422.946
242	1388.617
243	1341.767
244	1297
245	1262.171
246	1244.698
247	1232.412
248	1200.127
249	1165.235
250	1126.316
251	1092.993
252	1062.519
253	1038.549
254	1016.625
255	984.534
256	950.0453
257	901.3979
258	849.3755
259	799.7081
260	760.0541
261	723.1978
262	673.8813
263	628.6442
264	573.6179
265	525.9667
266	486.4262
267	461.8261
268	440.6725
269	405.7866
270	374.5889
271	344.909
272	325.5828
273	306.2185
274	290.0453
275	275.3954
276	259.2498
277	246.1214
278	227.7276
279	215.0964
280	212.4765
281	220.3332
282	218.2928
283	195.0224
284	165.1274
285	140.3306
286	121.2129
287	93.75768
288	65.47951
289	43.85853
290	32.89718
291	32.82498
292	34.94255
293	42.52102
294	47.58978
295	49.20921
296	46.9884
297	40.63796
298	33.65371
299	29.63453
300	28.0323
301	24.93701
302	24.66796
303	32.1552
304	46.88507
305	59.10138
306	62.31621
307	56.2363
308	45.36796
309	29.16774
310	10.38735
311	-6.674184
312	-24.8832
313	-42.11533
314	-53.95604
315	-61.77158
316	-62.95406
317	-67.43494
318	-71.25696
319	-73.90488
320	-73.67085
321	-61.43991
322	-32.35477
323	1.923404
324	33.71182
325	55.06694
326	72.97102
327	83.7494
328	96.44894
329	116.12
330	131.7504
331	140.5509
332	141.0532
333	142.5193
334	146.2167
335	161.08
336	187.8155
337	217.601
338	241.8647
339	262.4475
340	290.1192
341	318.6308
342	355.1752
343	393.1357
344	430.9507
345	465.0652
346	490.1239
347	517.2385
348	530.9825
349	543.6539
350	546.4858
351	541.275
352	528.1503
353	505.839
354	477.8658
355	448.0373
356	417.9493
357	391.5337
358	354.4752
359	314.3822
360	275.0388
361	241.9305
362	214.6234
363	179.8421
364	154.8415
365	133.1164
366	123.1404
367	111.8281
368	101.3554
369	98.86378
370	106.9353
371	115.2001
372	110.4621
373	96.90974
374	82.68268
375	68.19926
376	47.27658
377	21.73344
378	0.6716084
379	-12.83431
380	-14.04612
381	-11.64017
382	-0.8817995
383	13.82172
384	29.3566
385	41.3537
386	45.94657
387	47.86876
388	56.23481
389	59.7093
390	53.73528
391	38.69779
392	20.663
393	3.451554
394	-10.01269
395	-17.52207
396	-17.13493
397	-11.99641
398	-3.64443
399	-4.476721
400	-6.894039
401	8.916965
402	43.02646
403	76.39021
404	96.64211
405	111.8551
406	138.7947
407	163.285
408	185.7423
409	200.1675
410	217.3111
411	232.8726
412	236.519
413	222.6224
414	208.7874
415	218.5139
416	235.8712
417	240.0199
418	232.4582
419	227.7044
420	228.3696
421	228.4494
422	225.8429
423	220.6511
424	214.0972
425	203.5367
426	182.2509
427	158.2182
428	140.5157
429	135.8532
430	134.5392
431	131.0543
432	127.5912
433	120.0946
434	113.3018
435	109.9845
436	110.6688
437	111.6466
438	111.3153
439	103.636
440	85.60951
441	66.71739
442	52.52348
443	44.97142
444	35.96175
445	30.78586
446	28.12135
447	28.35445
448	25.33377
449	16.15027
450	10.27411
451	16.15898
452	23.82211
453	17.05876
454	4.759612
455	5.791607
456	20.46376
457	30.13678
458	27.95654
459	32.68576
460	57.31483
461	86.36584
462	108.0506
463	123.109
464	149.0449
465	178.2515
466	204.6856
467	222.1853
468	241.2662
469	268.9414
470	293.7754
471	316.6526
472	332.6864
473	356.4259
474	377.9612
475	395.3637
476	403.8193
477	410.976
478	420.0022
479	429.8307
480	443.4312
481	458.7787
482	479.502
483	500.47
484	526.2565
485	548.2665
486	559.7549
487	555.7502
488	544.2548
489	535.8498
490	521.4309
491	495.7418
492	467.0739
493	438.396
494	418.4838
495	399.8319
496	387.1523
497	378.1544
498	371.7786
499	368.793
500	365.3556
501	362.0161
502	355.0303
503	345.0281
504	327.9936
505	309.1899
506	295.963
507	293.3658
508	296.9486
509	302.9614
510	307.5624
511	303.832
512	295.9831
513	293.5767
514	291.1863
515	276.1294
516	251.55
517	234.0097
518	230.9404
519	236.7432
520	244.974
521	260.6172
522	284.5759
523	309.2045
524	328.3326
525	337.7565
526	346.8327
527	354.3087
528	367.5661
529	387.6869
530	413.5151
531	445.6389
532	474.7283
533	502.5678
534	523.2399
535	554.7322
536	585.0607
537	610.7128
538	624.176
539	628.7294
540	625.2465
541	612.98
542	597.752
543	576.291
544	545.2294
545	514.7277
546	484.6405
547	463.5805
548	441.2484
549	421.9213
550	394.2913
551	358.0335
552	322.996
553	292.2872
554	265.902
555	224.9489
556	188.8027
557	152.9048
558	129.3855
559	110.8022
560	103.4889
561	97.36128
562	90.74026
563	85.59933
564	80.82356
565	74.25359
566	60.52945
567	46.83458
568	38.09567
569	35.11971
570	28.51488
571	21.18167
572	17.35142
573	18.46644
574	17.91815
575	12.10369
576	9.153939
577	15.32475
578	21.21602
579	13.32657
580	3.267992
581	8.865317
582	27.38756
583	44.36052
584	55.48606
585	67.54953
586	79.7579
587	83.83869
588	76.93296
589	64.99691
590	58.70012
591	54.39047
592	45.80193
593	39.18262
594	38.79377
595	45.63179
596	53.57309
597	60.19535
598	65.36406
599	67.89855
600	68.55894
601	69.17119
602	68.77825
603	68.01641
604	67.93157
605	70.6942
606	74.97404
607	76.77455
608	77.04542
609	83.95139
610	98.16522
611	108.4592
612	109.4577
613	105.0005
614	99.27985
615	93.98961
616	92.83973
617	95.83075
618	100.6393
619	105.0692
620	105.1203
621	99.40352
622	90.29621
623	79.62442
624	66.18445
625	51.29744
626	36.13372
627	19.2619
628	13.3783
629	21.19775
630	42.98586
631	65.86414
632	87.01389
633	107.2248
634	120.432
635	134.8514
636	148.1188
637	157.7652
638	162.8022
639	161.3977
640	155.175
641	147.0273
642	143.5812
643	141.1791
644	133.4332
645	124.5854
646	115.1858
647	110.2558
648	113.9745
649	127.3262
650	141.9512
651	153.5192
652	162.1423
653	167.5428
654	169.0483
655	169.1888
656	169.5579
657	176.8721
658	184.5322
659	185.7997
660	182.5988
661	182.5339
662	187.4386
663	199.6522
664	217.8398
665	233.4412
666	241.684
667	245.9699
668	248.7783
669	253.5835
670	267.9579
671	280.8994
672	285.7318
673	283.6646
674	284.8704
675	287.6786
676	293.9333
677	300.3132
678	301.366
679	293.8666
680	277.1224
681	253.7759
682	232.4258
683	221.8932
684	209.8318
685	183.8269
686	154.2655
687	121.2625
688	97.96141
689	82.73042
690	80.1047
691	71.35548
692	61.67441
693	55.25446
694	55.15047
695	61.34168
696	72.11683
697	73.98055
698	60.16347
699	38.88432
700	17.70339
701	2.208549
702	-6.174345
703	-4.959301
704	-8.062748
705	-3.885267
706	15.84767
707	45.92122
708	74.42215
709	93.60517
710	109.1334
711	117.2435
712	122.7249
713	126.9651
714	129.752
715	133.3646
716	129.7956
717	114.51
718	98.46464
719	91.70065
720	91.77827
721	90.14301
722	88.48933
723	83.52797
724	76.14218
725	66.91349
726	57.61424
727	45.70134
728	33.68866
729	22.80917
730	15.61246
731	15.50073
732	22.89218
733	33.06104
734	40.13684
735	45.93094
736	53.59636
737	56.10604
738	49.77643
739	39.89843
740	35.82303
741	39.61148
742	51.5269
743	67.02601
744	75.91709
745	74.39501
746	70.96117
747	66.41556
748	55.95445
749	40.44832
750	23.51938
751	9.160125
752	4.750855
753	12.27948
754	30.90662
755	54.53733
756	77.0315
757	94.20626
758	105.5678
759	127.6102
760	149.7758
761	169.0644
762	182.788
763	205.2729
764	233.9676
765	274.8637
766	321.5466
767	380.5063
768	441.6281
769	504.4824
770	560.8396
771	612.6964
772	668.4786
773	719.4468
774	779.5078
775	832.639
776	895.4778
777	941.1844
778	981.7098
779	993.9514
780	1000.332
781	984.4086
782	955.2229
783	909.6094
784	846.0814
785	779.1759
786	708.4964
787	652.6061
788	605.3106
789	573.743
790	538.3312
791	492.8348
792	457.1678
793	438.6644
794	426.2567
795	402.8409
796	377.6307
797	345.4019
798	319.6487
799	301.5549
800	290.9557
801	268.0787
802	241.2782
803	206.8732
804	177.9742
805	157.859
806	153.0281
807	144.4803
808	138.7184
809	145.4311
810	168.3714
811	208.466
812	258.1487
813	299.7934
814	319.7963
815	331.0815
816	341.3831
817	346.0936
818	349.1598
819	349.635
820	350.233
821	355.1063
822	368.342
823	388.7266
824	417.0111
825	443.2168
826	463.1951
827	474.8818
828	496.4664
829	519.7369
830	544.9244
831	566.8317
832	593.5616
833	619.2316
834	650.1266
835	682.6735
836	725.853
837	777.5057
838	844.2575
839	921.6735
840	1023.663
841	1146.158
842	1277.297
843	1407.113
844	1525.391
845	1638.882
846	1713.884
847	1770.476
848	1778.755
849	1768.33
850	1718.88
851	1654.271
852	1571.779
853	1465.968
854	1364.134
855	1251.16
856	1154.678
857	1043.264
858	950.1168
859	850.9387
860	775.6964
861	701.8102
862	650.7803
863	596.8693
864	554.4689
865	503.2177
866	455.3926
867	411.1164
868	381.0596
869	354.2177
870	330.9399
871	311.188
872	294.3946
873	278.4631
874	260.699
875	240.3268
876	216.7243
877	187.341
878	150.7343
879	118.9214
880	96.33121
881	88.88148
882	87.68265
883	95.28342
884	100.4065
885	104.7406
886	104.5064
887	105.4595
888	116.7851
889	131.7729
890	140.1763
891	146.4708
892	163.1871
893	187.4717
894	221.5886
895	255.1747
896	284.1348
897	301.6837
898	320.9268
899	336.4173
900	356.0811
901	373.5791
902	385.4614
903	389.2019
904	397.7193
905	409.2448
906	412.7484
907	403.8824
908	387.1941
909	365.5318
910	336.2656
911	303.5693
912	268.2386
913	235.3742
914	201.8889
915	169.0283
916	144.4648
917	130.8251
918	119.8458
919	102.0234
920	91.25653
921	92.27852
922	93.46212
923	82.04102
924	71.17326
925	70.08418
926	68.01188
927	52.57674
928	37.43721
929	32.05087
930	36.43322
931	44.55849
932	56.05497
933	67.95553
934	73.41412
935	68.70422
936	58.73432
937	58.59134
938	59.12391
939	46.68037
940	28.66834
941	12.40226
942	2.865564
943	-2.514376
944	-0.84636
945	0.2484953
946	1.766315
947	-0.01092803
948	-0.2970842
949	11.09791
950	29.38358
951	42.64243
952	50.03259
953	61.85728
954	77.23548
955	101.2483
956	128.2216
957	157.5509
958	182.4939
959	215.0727
960	245.4276
961	274.0526
962	290.8613
963	295.4141
964	285.6275
965	277.9609
966	274.6059
967	268.5608
968	257.1852
969	229.5959
970	191.3525
971	159.5715
972	146.4396
973	137.7444
974	133.7791
975	131.8809
976	132.3238
977	140.8579
978	157.7663
979	178.0845
980	195.1074
981	202.8718
982	196.8424
983	186.2152
984	176.0029
985	168.0423
986	165.4885
987	166.6025
988	170.8678
989	180.54
990	194.0622
991	208.6037
992	220.0349
993	227.4533
994	229.8908
995	233.1221
996	240.1952
997	248.791
998	257.5796
999	267.2477
1000	276.6707
1001	281.2988
1002	278.5981
1003	264.0085
1004	238.2759
1005	197.357
1006	145.8645
1007	99.06101
1008	69.23124
1009	46.23896
1010	25.0151
1011	7.994936
1012	-6.322845
1013	-19.21396
1014	-32.41728
1015	-39.81094
1016	-39.79061
1017	-40.73984
1018	-47.65575
1019	-45.55132
1020	-28.88641
1021	-3.188895
1022	25.2035
1023	51.2455
1024	69.16395
1025	87.01806
1026	108.1417
1027	126.6045
1028	138.9005
1029	145.978
1030	148.976
1031	154.3995
1032	166.3117
1033	187.587
1034	216.4983
1035	252.6468
1036	290.679
1037	330.5038
1038	364.4714
1039	388.3185
1040	397.9801
1041	403.1369
1042	408.1985
1043	410.8215
1044	411.7436
1045	413.5199
1046	418.6371
1047	437.8084
1048	470.1906
1049	502.2978
1050	524.4034
1051	541.8629
1052	553.1682
1053	565.84
1054	578.3839
1055	586.5252
1056	585.3232
1057	570.7086
1058	544.514
1059	514.472
1060	490.0851
1061	468.7769
1062	455.449
1063	439.946
1064	428.0901
1065	429.042
1066	443.6415
1067	456.277
1068	462.137
1069	465.7872
1070	465.2905
1071	460.8367
1072	457.0275
1073	466.2314
1074	487.4743
1075	508.7283
1076	526.8437
1077	553.246
1078	576.232
1079	588.133
1080	587.5228
1081	593.0451
1082	601.5013
1083	612.4491
1084	626.0124
1085	647.6006
1086	670.4149
1087	696.2874
1088	713.4983
1089	725.3836
1090	722.3375
1091	712.4064
1092	691.4764
1093	664.0464
1094	635.3422
1095	604.2463
1096	583.3873
1097	568.8369
1098	563.5433
1099	552.5991
1100	547.5256
1101	548.6368
1102	558.2858
1103	573.0919
1104	591.2336
1105	609.1154
1106	624.2525
1107	636.2222
1108	644.1512
1109	650.4258
1110	644.2189
1111	623.432
1112	600.3619
1113	584.6326
1114	562.8562
1115	534.1819
1116	515.4182
1117	513.7542
1118	508.2157
1119	494.6958
1120	487.6933
1121	490.5198
1122	489.3415
1123	483.0904
1124	479.5437
1125	478.7925
1126	471.931
1127	461.0198
1128	455.5609
1129	454.6254
1130	445.1289
1131	432.8172
1132	428.6566
1133	431.8418
1134	429.9835
1135	427.1303
1136	430.5228
1137	431.9256
1138	419.9882
1139	399.7691
1140	382.7779
1141	363.0253
1142	330.3864
1143	300.1834
1144	277.8906
1145	266.6237
1146	257.8131
1147	252.4976
1148	245.1262
1149	231.6909
1150	209.5381
1151	184.0227
1152	161.3934
1153	133.7441
1154	103.6362
1155	86.6838
1156	90.56683
1157	97.19637
1158	98.99236
1159	90.54266
1160	73.20921
1161	61.27616
1162	57.68984
1163	46.56546
1164	32.31055
1165	24.29277
1166	23.01711
1167	16.22944
1168	9.757635
1169	12.22705
1170	16.07097
1171	1.784668
1172	-12.01806
1173	-1.531952
1174	18.5949
1175	25.69608
1176	29.72755
1177	41.94041
1178	44.82291
1179	28.08614
1180	12.51205
1181	13.84896
1182	15.37276
1183	8.925626
1184	10.38387
1185	23.9499
1186	35.31867
1187	39.0173
1188	43.32443
1189	47.23027
1190	43.32835
1191	34.44901
1192	35.91694
1193	48.90693
1194	63.96127
1195	80.83194
1196	105.7575
1197	128.4759
1198	143.9034
1199	146.3744
1200	147.1901
1201	142.1325
1202	134.3618
1203	134.5229
1204	152.4732
1205	174.4485
1206	186.118
1207	198.809
1208	217.2231
1209	221.1228
1210	203.3947
1211	179.2963
1212	158.7686
1213	140.3563
1214	131.278
1215	136.7915
1216	155.0781
1217	165.0779
1218	169.1196
1219	189.6568
1220	213.3819
1221	219.1226
1222	210.7488
1223	207.7069
1224	208.4428
1225	214.0808
1226	225.8099
1227	242.8296
1228	258.4912
1229	266.2564
1230	279.9008
1231	306.9642
1232	329.2743
1233	338.7048
1234	348.9296
1235	360.7176
1236	369.8692
1237	374.477
1238	383.5809
1239	394.1006
1240	399.3114
1241	402.0784
1242	415.7777
1243	435.0196
1244	454.2761
1245	469.2549
1246	482.8326
1247	489.6465
1248	493.1915
1249	489.9285
1250	482.5984
1251	468.5473
1252	449.8872
1253	423.5817
1254	393.862
1255	374.9583
1256	373.1664
1257	371.4181
1258	370.21
1259	370.8156
1260	372.9195
1261	373.8344
1262	372.8543
1263	370.655
1264	365.3387
1265	352.0773
1266	347.6555
1267	366.2241
1268	381.9225
1269	375.937
1270	362.0999
1271	349.1035
1272	335.9453
1273	324.8788
1274	310.7911
1275	297.1893
1276	288.8835
1277	287.6031
1278	283.0429
1279	277.2918
1280	268.7147
1281	264.9541
1282	273.2979
1283	283.0451
1284	279.3914
1285	274.6023
1286	278.1687
1287	284.0609
1288	288.9667
1289	289.6362
1290	285.3993
1291	285.7188
1292	291.7953
1293	297.1982
1294	299.3498
1295	298.1778
1296	293.2086
1297	287.6178
1298	281.1244
1299	271.7592
1300	264.9553
1301	263.6814
1302	264.2329
1303	262.3834
1304	262.0098
1305	263.9847
1306	265.9673
1307	266.0076
1308	260.3896
1309	251.6583
1310	249.0352
1311	253.9871
1312	261.5673
1313	268.1958
1314	269.1374
1315	265.4658
1316	264.5718
1317	252.6349
1318	222.1165
1319	195.8289
1320	186.65
1321	177.1615
1322	164.7935
1323	152.0516
1324	143.4216
1325	137.0622
1326	137.3247
1327	144.974
1328	152.7733
1329	145.3005
1330	135.982
1331	141.8584
1332	143.7605
1333	129.5083
1334	112.3056
1335	101.4091
1336	98.03359
1337	105.6639
1338	125.0029
1339	147.9815
1340	158.4253
1341	157.9899
1342	171.7797
1343	182.4939
1344	175.015
1345	161.6715
1346	157.911
1347	156.6165
1348	154.938
1349	158.3052
1350	165.6743
1351	164.6678
1352	155.3654
1353	154.5838
1354	158.6245
1355	152.7964
1356	142.8074
1357	138.7721
1358	133.5722
1359	119.9409
1360	108.7646
1361	106.7048
1362	101.7993
1363	91.12841
1364	82.82386
1365	81.24292
1366	87.17796
1367	95.82013
1368	93.60614
1369	82.47484
1370	69.52925
1371	59.03054
1372	55.0941
1373	52.27774
1374	46.15691
1375	43.26005
1376	46.28187
1377	57.28394
1378	70.09216
1379	67.9018
1380	52.55416
1381	40.22411
1382	31.21212
1383	23.54576
1384	17.47288
1385	9.204836
1386	2.940492
1387	0.2940259
1388	4.917704
1389	14.64097
1390	14.29965
1391	5.56509
1392	5.547386
1393	11.24353
1394	13.26555
1395	15.52775
1396	21.35807
1397	27.47691
1398	32.06134
1399	39.47878
1400	49.83319
1401	56.69106
1402	60.83771
1403	76.63213
1404	97.58152
1405	114.3698
1406	129.0999
1407	151.5914
1408	173.318
1409	191.5923
1410	207.8182
1411	222.8339
1412	240.1639
1413	257.0427
1414	272.4245
1415	282.6079
1416	295.1826
1417	302.7661
1418	306.0326
1419	301.8385
1420	292.825
1421	287.3325
1422	290.6101
1423	294.5107
1424	295.391
1425	288.6798
1426	279.8424
1427	282.4739
1428	290.9366
1429	293.7979
1430	293.9351
1431	292.896
1432	297.2596
1433	308.7286
1434	314.2948
1435	311.7686
1436	314.6496
1437	318.2235
1438	312.0275
1439	303.76
1440	302.7386
1441	309.5592
1442	322.6998
1443	339.5465
1444	355.7012
1445	372.4788
1446	388.1695
1447	412.8868
1448	433.2949
1449	437.4402
1450	440.6941
1451	466.3698
1452	497.9132
1453	524.0545
1454	552.0095
1455	574.5769
1456	587.5381
1457	583.1171
1458	571.4357
1459	547.6567
1460	513.6431
1461	478.1011
1462	448.5885
1463	424.3634
1464	408.38
1465	395.6298
1466	388.5625
1467	381.9011
1468	374.6851
1469	357.3405
1470	338.8116
1471	325.1762
1472	311.828
1473	297.627
1474	291.4028
1475	293.3617
1476	283.2589
1477	267.2838
1478	264.1619
1479	261.0693
1480	238.708
1481	216.0769
1482	206.1578
1483	185.5405
1484	152.9763
1485	128.5953
1486	117.0177
1487	97.19499
1488	83.26737
1489	80.18262
1490	77.60816
1491	63.86929
1492	51.50768
1493	44.66895
1494	29.78375
1495	13.61073
1496	12.089
1497	20.24665
1498	20.17967
1499	16.25976
1500	10.58261
1501	3.294019
1502	-2.88388
1503	-5.895843
1504	-2.280244
1505	7.02169
1506	24.77821
1507	54.1313
1508	76.79616
1509	79.32309
1510	73.00335
1511	65.13272
1512	60.33578
1513	59.8525
1514	57.61709
1515	55.91306
1516	54.70843
1517	59.54171
1518	72.27383
1519	70.04677
1520	48.18206
1521	33.50389
1522	34.64542
1523	46.71054
1524	65.99818
1525	80.12883
1526	91.63055
1527	102.2108
1528	119.1088
1529	137.05
1530	136.203
1531	117.4457
1532	101.7232
1533	92.17289
1534	90.61852
1535	93.36884
1536	95.59902
1537	100.1732
1538	106.1088
1539	111.2339
1540	116.2635
1541	127.3172
1542	135.5933
1543	135.3868
1544	139.9431
1545	154.2124
1546	171.281
1547	185.5558
1548	198.4043
1549	202.3071
1550	197.7184
1551	196.2286
1552	207.3724
1553	201.9421
1554	175.8842
1555	154.7683
1556	144.5763
1557	133.4234
1558	129.7406
1559	131.8734
1560	141.053
1561	154.8867
1562	177.2057
1563	198.164
1564	202.8039
1565	191.1482
1566	177.8235
1567	165.4516
1568	159.5957
1569	162.9431
1570	174.9666
1571	186.2834
1572	197.5916
1573	218.3347
1574	239.7516
1575	256.0935
1576	263.2619
1577	258.9289
1578	246.2248
1579	231.6656
1580	225.5835
1581	227.9838
1582	231.9639
1583	231.9933
1584	224.5337
1585	224.3688
1586	234.5983
1587	251.6745
1588	264.1685
1589	260.7099
1590	250.0677
1591	243.9758
1592	245.2487
1593	250.7914
1594	235.9187
1595	212.1405
1596	206.7099
1597	209.0504
1598	205.9944
1599	205.6179
1600	208.2589
1601	205.9988
1602	200.5469
1603	197.9665
1604	198.5326
1605	201.608
1606	199.2737
1607	189.0784
1608	178.408
1609	173.5992
1610	178.7863
1611	188.1277
1612	189.9518
1613	191.3266
1614	195.0124
1615	200.8703
1616	205.4974
1617	203.7218
1618	198.2074
1619	195.7848
1620	191.5218
1621	184.1844
1622	176.2181
1623	168.6166
1624	155.1224
1625	145.6956
1626	145.3436
1627	161.3801
1628	190.5694
1629	211.7788
1630	217.1746
1631	224.4251
1632	223.6479
1633	213.7325
1634	197.4302
1635	180.7436
1636	164.0579
1637	153.9774
1638	148.0059
1639	150.0283
1640	155.881
1641	162.0697
1642	164.3692
1643	162.6342
1644	159.4019
1645	163.3252
1646	169.6814
1647	172.257
1648	167.7489
1649	158.0773
1650	160.7381
1651	173.347
1652	178.2744
1653	176.1307
1654	170.1323
1655	159.8865
1656	148.5459
1657	136.6869
1658	126.8646
1659	111.7793
1660	104.8179
1661	111.2903
1662	118.8585
1663	122.6652
1664	130.4138
1665	140.4042
1666	152.9244
1667	158.9101
1668	154.4013
1669	155.8056
1670	163.1367
1671	159.2011
1672	147.8845
1673	137.8458
1674	130.7255
1675	129.0508
1676	135.7129
1677	146.8268
1678	148.528
1679	147.7769
1680	155.173
1681	152.919
1682	137.7448
1683	130.8521
1684	131.5977
1685	123.7958
1686	120.2874
1687	127.631
1688	138.5434
1689	147.4322
1690	151.3082
1691	149.0441
1692	145.5777
1693	142.2965
1694	141.4623
1695	140.7858
1696	139.0884
1697	132.569
1698	128.069
1699	131.4118
1700	136.0578
1701	141.4727
1702	162.3646
1703	188.2344
1704	202.2263
1705	211.6511
1706	223.0563
1707	216.9058
1708	194.9246
1709	181.0344
1710	173.0179
1711	162.4768
1712	167.6768
1713	190.2862
1714	206.0548
1715	210.5964
1716	216.5534
1717	217.0935
1718	212.53
1719	204.3557
1720	192.0851
1721	168.1661
1722	147.3095
1723	142.979
1724	141.4114
1725	134.7895
1726	124.4477
1727	114.0269
1728	107.5662
1729	100.0217
1730	88.00384
1731	81.38119
1732	85.83466
1733	100.7634
1734	117.0225
1735	123.2917
1736	124.2707
1737	119.8165
1738	103.1638
1739	80.6322
1740	61.2712
1741	47.37032
1742	39.62901
1743	33.92108
1744	33.19257
1745	37.02798
1746	44.39761
1747	50.66927
1748	51.52648
1749	46.05386
1750	41.30342
1751	34.91246
1752	24.00655
1753	12.28384
1754	3.302994
1755	-1.777322
1756	-0.4332737
1757	2.211631
1758	13.30535
1759	31.56844
1760	39.54622
1761	36.25388
1762	40.69369
1763	45.06748
1764	44.99893
1765	45.06239
1766	45.30352
1767	41.46698
1768	37.66445
1769	39.61689
1770	33.501
1771	17.23805
1772	7.264232
1773	4.03428
1774	-0.8802043
1775	-1.113128
1776	3.926784
1777	8.265869
1778	12.9177
1779	23.96762
1780	34.10929
1781	39.0567
1782	44.34781
1783	49.33789
1784	56.14003
1785	57.98419
1786	52.38895
1787	45.25881
1788	39.20442
1789	30.42504
1790	27.0131
1791	34.10763
1792	40.22381
1793	41.59973
1794	46.84359
1795	53.53169
1796	59.53485
1797	66.50116
1798	72.2989
1799	68.33752
1800	58.90714
1801	55.94437
1802	50.45576
1803	40.28318
1804	33.95651
1805	32.58894
1806	29.03172
1807	34.80721
1808	51.07975
1809	56.97282
1810	53.86504
1811	59.19958
1812	65.37298
1813	68.68575
1814	70.19509
1815	66.30019
1816	53.66743
1817	37.20588
1818	23.67644
1819	7.686455
1820	-1.122644
1821	6.124239
1822	21.89326
1823	34.08758
1824	52.0316
1825	69.90343
1826	82.96708
1827	86.82045
1828	84.41106
1829	72.51106
1830	56.70364
1831	47.62926
1832	45.68469
1833	46.72727
1834	46.07552
1835	42.92198
1836	39.79502
1837	38.0626
1838	38.07772
1839	32.61041
1840	23.69383
1841	19.26512
1842	20.2645
1843	24.6021
1844	30.59262
1845	36.0299
1846	41.45148
1847	43.31283
1848	41.07397
1849	41.75686
1850	46.07204
1851	52.20228
1852	50.72237
1853	37.20778
1854	34.99047
1855	44.40265
1856	47.97323
1857	46.03471
1858	40.2146
1859	42.44117
1860	51.70238
1861	57.18114
1862	60.02804
1863	62.16452
1864	72.80631
1865	83.07936
1866	75.9068
1867	64.49117
1868	59.88459
1869	56.68602
1870	55.04586
1871	51.69077
1872	50.78722
1873	53.69498
1874	60.47575
1875	64.34758
1876	56.83758
1877	51.31623
1878	54.26285
1879	58.47543
1880	62.60781
1881	64.83747
1882	62.72313
1883	56.37695
1884	48.45284
1885	44.98555
1886	49.8722
1887	60.38285
1888	69.77184
1889	68.77718
1890	63.04613
1891	62.25452
1892	69.32528
1893	78.2664
1894	71.49017
1895	63.10544
1896	65.3792
1897	74.36751
1898	78.56807
1899	59.35788
1900	42.1392
1901	43.45683
1902	46.32461
1903	46.61182
1904	38.63
1905	28.25695
1906	22.44658
1907	29.36121
1908	39.22503
1909	36.77239
1910	45.70947
1911	65.85184
1912	79.20021
1913	83.7154
1914	81.93459
1915	72.35719
1916	58.9022
1917	47.6647
1918	38.40652
1919	32.06429
1920	34.25606
1921	41.78815
1922	43.77414
1923	42.82646
1924	40.19248
1925	39.68779
1926	36.00093
1927	24.38421
1928	20.03418
1929	25.8249
1930	27.97578
1931	36.11967
1932	52.31136
1933	60.4299
1934	59.82239
1935	63.51658
1936	66.29028
1937	65.62172
1938	59.1549
1939	45.12694
1940	25.45008
1941	19.06277
1942	29.65406
1943	36.26257
1944	37.05711
1945	31.9654
1946	38.54343
1947	52.06409
1948	56.71115
1949	55.49244
1950	53.43841
1951	63.78644
1952	75.94708
1953	75.57089
1954	68.95078
1955	59.85544
1956	52.63492
1957	45.63348
1958	38.51735
1959	39.27934
1960	47.64317
1961	57.08541
1962	61.53469
1963	57.8828
1964	52.53144
1965	48.90545
1966	50.25385
1967	42.94627
1968	32.90397
1969	40.21911
1970	49.80079
1971	51.05645
1972	56.88602
1973	59.03355
1974	48.67916
1975	37.29103
1976	29.95779
1977	19.51804
1978	14.68303
1979	18.13633
1980	16.65768
1981	15.38404
1982	25.34315
1983	35.56912
1984	40.12794
1985	41.94684
1986	47.32699
1987	61.95483
1988	73.08027
1989	73.56214
1990	65.67221
1991	51.26135
1992	37.41778
1993	29.26205
1994	30.12863
1995	36.70586
1996	40.83731
1997	39.82831
1998	37.3363
1999	30.64794
2000	20.63471
